{"resourceType":"Bundle","type":"document","timestamp":"2021-11-24T08:56:03Z","identifier":{"system":"https://www.ehealth.fgov.be/hl7/bundle","value":"81365677998.815333042.11"},"entry":[{"fullUrl":"Composition/815333042","resource":{"resourceType":"Composition","id":"815333042","meta":{"profile":["https://www.ehealth.fgov.be/standards/fhir/StructureDefinition/be-laboratory-report-composition"]},"text":{"status":"generated","div":"<div xmlns=\"http://www.w3.org/1999/xhtml\"><p><b>id: </b>815333042</p><p><b>status: </b>final</p><p><b>type: </b>http://loinc.org 11502-2 Laboratory report</p><p><b>date: </b>2021-11-24T08:56:03+01:00</p><p><b>author: </b>Practitioner/Responsible</p><p><b>title: </b>Laboratory Report</p></div>"},"identifier":{"system":"http://www.macsys.be/hl7/Composition","value":"815333042"},"status":"final","type":{"coding":[{"system":"http://loinc.org","code":"11502-2"}],"text":"Laboratory report"},"subject":{"reference":"Patient/6803360"},"date":"2021-11-24T08:56:03+01:00","author":[{"reference":"Practitioner/Responsible"}],"title":"Laboratory Report","section":[{"entry":[{"reference":"DiagnosticReport/815333042"}]}]}},{"fullUrl":"Specimen/001815333042","resource":{"resourceType":"Specimen","id":"001815333042","meta":{"profile":["https://www.ehealth.fgov.be/standards/fhir/StructureDefinition/be-specimen-laboratory"]},"text":{"status":"generated","div":"<div xmlns=\"http://www.w3.org/1999/xhtml\"><p><b>id: </b>001815333042</p><p><b>status: </b>available</p><p><b>type: </b>http://terminology.hl7.org/CodeSystem/v2-0487 SER Serum Citraatvolbloed</p><p><b>receivedTime: </b>2021-11-04T13:06:42+01:00</p><p><b>collector: </b>Practitioner/8152</p></div>"},"identifier":[{"system":"http://www.macsys.be/hl7/Specimen","value":"001815333042"}],"status":"available","type":{"coding":[{"system":"http://terminology.hl7.org/CodeSystem/v2-0487","code":"SER","display":"Serum"}],"text":"Citraatvolbloed"},"subject":{"reference":"Patient/6803360"},"receivedTime":"2021-11-04T13:06:42+01:00","collection":{"collectedDateTime":"2021-11-04T00:00:00+01:00","collector":{"reference":"Practitioner/8152"}}}},{"fullUrl":"Observation/Observation.1.0.0.0","resource":{"resourceType":"Observation","id":"Observation.1.0.0.0","meta":{"profile":["https://www.ehealth.fgov.be/standards/fhir/StructureDefinition/be-observation-laboratory"]},"text":{"status":"generated","div":"<div xmlns=\"http://www.w3.org/1999/xhtml\"><p><b>code: </b>STOLLING</p><p><b>subject: </b>Patient/6803360</p><p><b>effective: </b>2021-11-04T00:00:00+01:00</p><p><b>performer: </b>Practitioner/Responsible</p><p><b>member: </b> // Observation/Observation.1.0.0.1 // Observation/Observation.1.0.0.2 // </p></div>"},"status":"final","code":{"text":"STOLLING"},"subject":{"reference":"Patient/6803360"},"effectiveDateTime":"2021-11-04T00:00:00+01:00","performer":[{"reference":"Practitioner/Responsible"}],"hasMember":[{"reference":"Observation/Observation.1.0.0.1"},{"reference":"Observation/Observation.1.0.0.2"}]}},{"fullUrl":"Observation/Observation.1.0.0.1","resource":{"resourceType":"Observation","id":"Observation.1.0.0.1","meta":{"profile":["https://www.ehealth.fgov.be/standards/fhir/StructureDefinition/be-observation-laboratory"]},"text":{"status":"generated","div":"<div xmlns=\"http://www.w3.org/1999/xhtml\"><p><b>code: </b>http://loinc.org 6301-6 INR</p><p><b>subject: </b>Patient/6803360</p><p><b>effective: </b>2021-11-04T00:00:00+01:00</p><p><b>performer: </b>Practitioner/Responsible</p><p><b>result: </b>1,0000000000 {}</p><p><b>specimen: </b>Specimen/001815333042</p><p><b>interpretation: </b></p><p><b>referenceRange: </b> // High: 1,20000 {} // </p></div>"},"status":"final","code":{"coding":[{"system":"http://loinc.org","code":"6301-6"}],"text":"INR"},"subject":{"reference":"Patient/6803360"},"effectiveDateTime":"2021-11-04T00:00:00+01:00","issued":"2021-11-04T13:07:04+01:00","performer":[{"reference":"Practitioner/Responsible"}],"valueQuantity":{"value":1.0000000000,"unit":"{}","system":"http://unitsofmeasure.org","code":"{}"},"specimen":{"reference":"Specimen/001815333042"},"referenceRange":[{"high":{"value":1.20000,"unit":"{}","system":"http://unitsofmeasure.org","code":"{}"}}]}},{"fullUrl":"Observation/Observation.1.0.0.2","resource":{"resourceType":"Observation","id":"Observation.1.0.0.2","meta":{"profile":["https://www.ehealth.fgov.be/standards/fhir/StructureDefinition/be-observation-laboratory"]},"text":{"status":"generated","div":"<div xmlns=\"http://www.w3.org/1999/xhtml\"><p><b>code: </b>http://loinc.org 5894-1 PT (Quick)</p><p><b>subject: </b>Patient/6803360</p><p><b>effective: </b>2021-11-04T00:00:00+01:00</p><p><b>performer: </b>Practitioner/Responsible</p><p><b>result: </b>100,0000000000 %</p><p><b>specimen: </b>Specimen/001815333042</p><p><b>interpretation: </b></p><p><b>referenceRange: </b> // Low: 65,00000 % // </p></div>"},"status":"final","code":{"coding":[{"system":"http://loinc.org","code":"5894-1"}],"text":"PT (Quick)"},"subject":{"reference":"Patient/6803360"},"effectiveDateTime":"2021-11-04T00:00:00+01:00","issued":"2021-11-04T13:07:01+01:00","performer":[{"reference":"Practitioner/Responsible"}],"valueQuantity":{"value":100.0000000000,"unit":"%","system":"http://unitsofmeasure.org","code":"%"},"specimen":{"reference":"Specimen/001815333042"},"referenceRange":[{"low":{"value":65.00000,"unit":"%","system":"http://unitsofmeasure.org","code":"%"}}]}},{"fullUrl":"DiagnosticReport/815333042","resource":{"resourceType":"DiagnosticReport","id":"815333042","meta":{"versionId":"11","profile":["https://www.ehealth.fgov.be/standards/fhir/StructureDefinition/be-laboratory-report"]},"language":"nl","text":{"status":"generated","div":"<div xmlns=\"http://www.w3.org/1999/xhtml\" xml:lang=\"nl\" lang=\"nl\"><p><b>id: </b>815333042</p><p><b>basedOn: </b>ServiceRequest/815333042</p><p><b>status: </b>final</p><p><b>category: </b>http://terminology.hl7.org/CodeSystem/v2-0074 LAB Laboratory</p><p><b>code: </b>http://loinc.org 26436-6 Laboratory studies (set)</p><p><b>subject: </b>Patient/6803360</p><p><b>effective: </b>2021-11-04T00:00:00+01:00</p><p><b>issued: </b>2021-11-24T08:56:03+01:00</p><p><b>performer: </b>Organization/81365677998</p><p><b>resultsInterpreter: </b>Practitioner/Responsible</p><p><b>specimen: </b> // Specimen/001815333042 // </p><p><b>result: </b> // Observation/Observation.1.0.0.0 // </p></div>"},"identifier":[{"system":"http://www.macsys.be/hl7/DiagnosticReport","value":"815333042"}],"basedOn":[{"reference":"ServiceRequest/815333042"}],"status":"final","category":[{"coding":[{"system":"http://terminology.hl7.org/CodeSystem/v2-0074","code":"LAB","display":"Laboratory"}]}],"code":{"coding":[{"system":"http://loinc.org","code":"26436-6","display":"Laboratory studies (set)"}]},"subject":{"reference":"Patient/6803360"},"effectiveDateTime":"2021-11-04T00:00:00+01:00","issued":"2021-11-24T08:56:03+01:00","performer":[{"reference":"Organization/81365677998"}],"resultsInterpreter":[{"reference":"Practitioner/Responsible"}],"specimen":[{"reference":"Specimen/001815333042"}],"result":[{"reference":"Observation/Observation.1.0.0.0"}]}},{"fullUrl":"Organization/81365677998","resource":{"resourceType":"Organization","id":"81365677998","meta":{"profile":["https://www.ehealth.fgov.be/standards/fhir/StructureDefinition/be-organization"]},"text":{"status":"generated","div":"<div xmlns=\"http://www.w3.org/1999/xhtml\"><p><b>identifier: </b>81365677998</p><p><b>name: </b>CENTRUM VOOR MEDISCHE ANALYSE</p><p><b>contact: </b>014/28.50.00</p><p><b>address: </b>Oud-Strijderslaan 199 2200 Herentals BE</p></div>"},"identifier":[{"use":"official","type":{"coding":[{"system":"http://terminology.hl7.org/CodeSystem/v2-0203","code":"MD","display":"Medical License number"}]},"system":"https://www.ehealth.fgov.be/standards/fhir/NamingSystem/nihdi","value":"81365677998"}],"active":true,"type":[{"coding":[{"system":"https://www.ehealth.fgov.be/standards/fhir/CodeSystem/cd-hcparty","code":"orglaboratory"}]}],"name":"CENTRUM VOOR MEDISCHE ANALYSE","telecom":[{"system":"phone","value":"014/28.50.00","use":"work"},{"system":"fax","value":"014/22.56.08","use":"work"},{"system":"email","value":"info@cma.be","use":"work"},{"system":"url","value":"http://www.cma.be","use":"work"}],"address":[{"use":"work","type":"both","line":["Oud-Strijderslaan 199"],"city":"Herentals","postalCode":"2200","country":"BE"}]}},{"fullUrl":"Practitioner/8152","resource":{"resourceType":"Practitioner","id":"8152","meta":{"profile":["https://www.ehealth.fgov.be/standards/fhir/StructureDefinition/be-practitioner"]},"text":{"status":"generated","div":"<div xmlns=\"http://www.w3.org/1999/xhtml\"><p><b>identifier: </b>11849242860</p><p><b>name: </b>Waegemans Stefan</p><p><b>contact: </b>stefan.waegemans@cma.be</p><p><b>address: </b>Willekensmolenstraat 88/2 3500 Hasselt BE</p></div>"},"identifier":[{"use":"official","system":"https://www.ehealth.fgov.be/standards/fhir/NamingSystem/nihdi","value":"11849242860"}],"name":[{"use":"official","family":"Waegemans","given":["Stefan"],"prefix":["Dr."]}],"telecom":[{"system":"email","value":"stefan.waegemans@cma.be","use":"work"},{"system":"fax","value":"(+32)11/243291","use":"work"},{"system":"phone","value":"(+32)11/225288","use":"work"}],"address":[{"use":"work","type":"both","line":["Willekensmolenstraat 88/2"],"city":"Hasselt","postalCode":"3500","country":"BE"}],"gender":"unknown"}},{"fullUrl":"Practitioner/Responsible","resource":{"resourceType":"Practitioner","id":"Responsible","meta":{"profile":["https://www.ehealth.fgov.be/standards/fhir/StructureDefinition/be-practitioner"]},"text":{"status":"generated","div":"<div xmlns=\"http://www.w3.org/1999/xhtml\"><p><b>identifier: </b>68071432800</p><p><b>name: </b>Engelen Frans</p><p><b>contact: </b>014/28.50.00</p><p><b>address: </b>Oud-Strijderslaan 199 2200 Herentals BE</p></div>"},"identifier":[{"use":"official","system":"https://www.ehealth.fgov.be/standards/fhir/NamingSystem/nihdi","value":"68071432800"}],"name":[{"use":"official","family":"Engelen","given":["Frans"]}],"telecom":[{"system":"phone","value":"014/28.50.00","use":"work"}],"address":[{"use":"work","type":"both","line":["Oud-Strijderslaan 199"],"city":"Herentals","postalCode":"2200","country":"BE"}],"gender":"unknown"}},{"fullUrl":"Patient/6803360","resource":{"resourceType":"Patient","id":"6803360","meta":{"profile":["https://www.ehealth.fgov.be/standards/fhir/StructureDefinition/be-patient"]},"text":{"status":"generated","div":"<div xmlns=\"http://www.w3.org/1999/xhtml\"><p><b>identifier: </b>72032444577</p><p><b>name: </b>Waegemans Stefan</p><p><b>gender: </b>male</p><p><b>birthDate: </b>1972-03-24</p><p><b>address: </b>Willekensmolenstraat 88/2 3500 Hasselt BE</p><p><b>contact: </b>+3214285000</p></div>"},"identifier":[{"use":"official","system":"https://www.ehealth.fgov.be/standards/fhir/NamingSystem/ssin","value":"72032444577"}],"active":true,"name":[{"use":"official","family":"Waegemans","given":["Stefan"]}],"telecom":[{"system":"phone","value":"+3214285000","use":"home"},{"system":"email","value":"STEFAN.WAEGEMANS@CMA.BE","use":"home"}],"address":[{"use":"home","type":"both","line":["Willekensmolenstraat 88/2"],"city":"Hasselt","postalCode":"3500","country":"BE"}],"gender":"male","birthDate":"1972-03-24"}},{"fullUrl":"ServiceRequest/815333042","resource":{"resourceType":"ServiceRequest","id":"815333042","text":{"status":"generated","div":"<div xmlns=\"http://www.w3.org/1999/xhtml\"><p><b>id: </b>815333042</p><p><b>intent: </b>order</p><p><b>status: </b>completed</p><p><b>category: </b>http://snomed.info/sct 108252007 Laboratory procedure</p><p><b>subject: </b>Patient/6803360</p><p><b>requester: </b>Practitioner/8152</p><p><b>authoredOn: </b>2021-11-04T13:06:00+01:00</p></div>"},"identifier":[{"system":"http://www.macsys.be/hl7/ServiceRequest","value":"815333042"}],"status":"completed","intent":"order","category":[{"coding":[{"system":"http://snomed.info/sct","code":"108252007","display":"Laboratory procedure"}]}],"subject":{"reference":"Patient/6803360"},"priority":"routine","authoredOn":"2021-11-04T13:06:00+01:00","requester":{"reference":"Practitioner/8152"},"note":[{"text":"Kopie op verzoek van Dr. WAEGEMANS STEFAN\r\n"}]}}]}