{
   "resourceType":"Bundle",
   "type":"document",
   "timestamp":"2021-11-09T14:15:15Z",
   "identifier":{
      "system":"http://www.macsys.be/hl7/bundle",
      "value":"BelgiumHL7Lab.81365677998.815333044"
   },
   "entry":[
      {
         "fullUrl":"Composition/815333044",
         "resource":{
            "resourceType":"Composition",
            "id":"815333044",
            "meta":{
               "profile":[
                  "https://www.ehealth.fgov.be/standards/fhir/StructureDefinition/be-laboratory-report-composition"
               ]
            },
            "identifier":{
               "system":"http://www.macsys.be/hl7/Composition",
               "value":"815333044"
            },
            "status":"preliminary",
            "type":{
               "coding":[
                  {
                     "system":"http://loinc.org",
                     "code":"11502-2"
                  }
               ],
               "text":"Laboratory report"
            },
            "subject":{
               "reference":"Patient/6803360"
            },
            "date":"2021-11-09T14:15:15Z",
            "author":[
               {
                  "reference":"Practitioner/100"
               }
            ],
            "title":"Laboratory Report",
            "section":[
               {
                  "entry":[
                     {
                        "reference":"DiagnosticReport/815333044"
                     }
                  ]
               }
            ]
         }
      },
      {
         "fullUrl":"Specimen/001815333044",
         "resource":{
            "resourceType":"Specimen",
            "id":"001815333044",
            "meta":{
               "profile":[
                  "https://www.ehealth.fgov.be/standards/fhir/StructureDefinition/be-specimen-laboratory"
               ]
            },
            "identifier":[
               {
                  "system":"http://www.macsys.be/hl7/Specimen",
                  "value":"001815333044"
               }
            ],
            "status":"available",
            "type":{
               "coding":[
                  {
                     "system":"http://snomed.info/sct",
                     "code":"119297000",
                     "display":"Blood specimen"
                  }
               ],
               "text":"EDTA-volbloed"
            },
            "subject":{
               "reference":"Patient/6803360"
            },
            "receivedTime":"2021-11-04T13:15:49Z",
            "collection":{
               "collectedDateTime":"2021-11-04T00:00:00Z",
               "collector":{
                  "reference":"Practitioner/8152"
               }
            }
         }
      },
      {
         "fullUrl":"Specimen/002815333044",
         "resource":{
            "resourceType":"Specimen",
            "id":"002815333044",
            "meta":{
               "profile":[
                  "https://www.ehealth.fgov.be/standards/fhir/StructureDefinition/be-specimen-laboratory"
               ]
            },
            "identifier":[
               {
                  "system":"http://www.macsys.be/hl7/Specimen",
                  "value":"002815333044"
               }
            ],
            "status":"available",
            "type":{
               "coding":[
                  {
                     "system":"http://snomed.info/sct",
                     "code":"119297000",
                     "display":"Blood specimen"
                  }
               ],
               "text":"Serum"
            },
            "subject":{
               "reference":"Patient/6803360"
            },
            "receivedTime":"2021-11-04T13:15:49Z",
            "collection":{
               "collectedDateTime":"2021-11-04T00:00:00Z",
               "collector":{
                  "reference":"Practitioner/8152"
               }
            }
         }
      },
      {
         "fullUrl":"Observation/Observation.1.0.0.0",
         "resource":{
            "resourceType":"Observation",
            "id":"Observation.1.0.0.0",
            "meta":{
               "profile":[
                  "https://www.ehealth.fgov.be/standards/fhir/StructureDefinition/be-observation-laboratory"
               ]
            },
            "status":"preliminary",
            "code":{
               "text":"HEMATOLOGIE"
            },
            "subject":{
               "reference":"Patient/6803360"
            },
            "effectiveDateTime":"2021-11-04T00:00:00Z",
            "performer":[
               {
                  "reference":"Practitioner/100"
               }
            ],
            "hasMember":[
               {
                  "reference":"Observation/Observation.1.0.0.1"
               },
               {
                  "reference":"Observation/Observation.1.0.0.2"
               },
               {
                  "reference":"Observation/Observation.1.0.0.3"
               },
               {
                  "reference":"Observation/Observation.1.0.0.4"
               },
               {
                  "reference":"Observation/Observation.1.0.0.5"
               },
               {
                  "reference":"Observation/Observation.1.0.0.6"
               },
               {
                  "reference":"Observation/Observation.1.0.0.7"
               },
               {
                  "reference":"Observation/Observation.1.0.0.8"
               },
               {
                  "reference":"Observation/Observation.1.1.0.0"
               },
               {
                  "reference":"Observation/Observation.1.2.0.0"
               }
            ]
         }
      },
      {
         "fullUrl":"Observation/Observation.1.0.0.1",
         "resource":{
            "resourceType":"Observation",
            "id":"Observation.1.0.0.1",
            "meta":{
               "profile":[
                  "https://www.ehealth.fgov.be/standards/fhir/StructureDefinition/be-observation-laboratory"
               ]
            },
            "status":"final",
            "code":{
               "coding":[
                  {
                     "system":"http://loinc.org",
                     "code":"4537-7"
                  }
               ],
               "text":"Bezinking na 1 uur"
            },
            "subject":{
               "reference":"Patient/6803360"
            },
            "effectiveDateTime":"2021-11-04T00:00:00Z",
            "issued":"2021-11-04T13:16:35Z",
            "performer":[
               {
                  "reference":"Practitioner/100"
               }
            ],
            "valueQuantity":{
               "value":10.0000000000,
               "unit":"mm",
               "system":"http://unitsofmeasure.org",
               "code":"mm"
            },
            "interpretation":[
               {
                  "coding":[
                     {
                        "system":"http://terminology.hl7.org/CodeSystem/v3-ObservationInterpretation",
                        "code":"N"
                     }
                  ]
               }
            ],
            "specimen":{
               "reference":"Specimen/001815333044"
            },
            "referenceRange":[
               {
                  "high":{
                     "value":25.00000,
                     "unit":"mm",
                     "system":"http://unitsofmeasure.org",
                     "code":"mm"
                  }
               }
            ]
         }
      },
      {
         "fullUrl":"Observation/Observation.1.0.0.2",
         "resource":{
            "resourceType":"Observation",
            "id":"Observation.1.0.0.2",
            "meta":{
               "profile":[
                  "https://www.ehealth.fgov.be/standards/fhir/StructureDefinition/be-observation-laboratory"
               ]
            },
            "status":"final",
            "code":{
               "coding":[
                  {
                     "system":"http://loinc.org",
                     "code":"789-8"
                  }
               ],
               "text":"Erytrocyten"
            },
            "subject":{
               "reference":"Patient/6803360"
            },
            "effectiveDateTime":"2021-11-04T00:00:00Z",
            "issued":"2021-11-04T13:16:40Z",
            "performer":[
               {
                  "reference":"Practitioner/100"
               }
            ],
            "valueQuantity":{
               "value":4.6900000000,
               "unit":"10*6/uL",
               "system":"http://unitsofmeasure.org",
               "code":"10*6/uL"
            },
            "interpretation":[
               {
                  "coding":[
                     {
                        "system":"http://terminology.hl7.org/CodeSystem/v3-ObservationInterpretation",
                        "code":"N"
                     }
                  ]
               }
            ],
            "specimen":{
               "reference":"Specimen/001815333044"
            },
            "referenceRange":[
               {
                  "low":{
                     "value":4.35000,
                     "unit":"10*6/uL",
                     "system":"http://unitsofmeasure.org",
                     "code":"10*6/uL"
                  },
                  "high":{
                     "value":5.61000,
                     "unit":"10*6/uL",
                     "system":"http://unitsofmeasure.org",
                     "code":"10*6/uL"
                  }
               }
            ]
         }
      },
      {
         "fullUrl":"Observation/Observation.1.0.0.3",
         "resource":{
            "resourceType":"Observation",
            "id":"Observation.1.0.0.3",
            "meta":{
               "profile":[
                  "https://www.ehealth.fgov.be/standards/fhir/StructureDefinition/be-observation-laboratory"
               ]
            },
            "status":"final",
            "code":{
               "coding":[
                  {
                     "system":"http://loinc.org",
                     "code":"718-7"
                  }
               ],
               "text":"Hemoglobine"
            },
            "subject":{
               "reference":"Patient/6803360"
            },
            "effectiveDateTime":"2021-11-04T00:00:00Z",
            "issued":"2021-11-04T13:16:46Z",
            "performer":[
               {
                  "reference":"Practitioner/100"
               }
            ],
            "valueQuantity":{
               "value":14.8000000000,
               "unit":"g/dL",
               "system":"http://unitsofmeasure.org",
               "code":"g/dL"
            },
            "interpretation":[
               {
                  "coding":[
                     {
                        "system":"http://terminology.hl7.org/CodeSystem/v3-ObservationInterpretation",
                        "code":"N"
                     }
                  ]
               }
            ],
            "specimen":{
               "reference":"Specimen/001815333044"
            },
            "referenceRange":[
               {
                  "low":{
                     "value":13.40000,
                     "unit":"g/dL",
                     "system":"http://unitsofmeasure.org",
                     "code":"g/dL"
                  },
                  "high":{
                     "value":16.50000,
                     "unit":"g/dL",
                     "system":"http://unitsofmeasure.org",
                     "code":"g/dL"
                  }
               }
            ]
         }
      },
      {
         "fullUrl":"Observation/Observation.1.0.0.4",
         "resource":{
            "resourceType":"Observation",
            "id":"Observation.1.0.0.4",
            "meta":{
               "profile":[
                  "https://www.ehealth.fgov.be/standards/fhir/StructureDefinition/be-observation-laboratory"
               ]
            },
            "status":"final",
            "code":{
               "coding":[
                  {
                     "system":"http://loinc.org",
                     "code":"4544-3"
                  }
               ],
               "text":"Hematocriet"
            },
            "subject":{
               "reference":"Patient/6803360"
            },
            "effectiveDateTime":"2021-11-04T00:00:00Z",
            "issued":"2021-11-04T13:16:49Z",
            "performer":[
               {
                  "reference":"Practitioner/100"
               }
            ],
            "valueQuantity":{
               "value":41.0000000000,
               "unit":"%",
               "system":"http://unitsofmeasure.org",
               "code":"%"
            },
            "interpretation":[
               {
                  "coding":[
                     {
                        "system":"http://terminology.hl7.org/CodeSystem/v3-ObservationInterpretation",
                        "code":"N"
                     }
                  ]
               }
            ],
            "specimen":{
               "reference":"Specimen/001815333044"
            },
            "referenceRange":[
               {
                  "low":{
                     "value":39.70000,
                     "unit":"%",
                     "system":"http://unitsofmeasure.org",
                     "code":"%"
                  },
                  "high":{
                     "value":49.30000,
                     "unit":"%",
                     "system":"http://unitsofmeasure.org",
                     "code":"%"
                  }
               }
            ]
         }
      },
      {
         "fullUrl":"Observation/Observation.1.0.0.5",
         "resource":{
            "resourceType":"Observation",
            "id":"Observation.1.0.0.5",
            "meta":{
               "profile":[
                  "https://www.ehealth.fgov.be/standards/fhir/StructureDefinition/be-observation-laboratory"
               ]
            },
            "status":"final",
            "code":{
               "coding":[
                  {
                     "system":"http://loinc.org",
                     "code":"787-2"
                  }
               ],
               "text":"MCV"
            },
            "subject":{
               "reference":"Patient/6803360"
            },
            "effectiveDateTime":"2021-11-04T00:00:00Z",
            "issued":"2021-11-04T13:16:54Z",
            "performer":[
               {
                  "reference":"Practitioner/100"
               }
            ],
            "valueQuantity":{
               "value":90.0000000000,
               "unit":"fL",
               "system":"http://unitsofmeasure.org",
               "code":"fL"
            },
            "interpretation":[
               {
                  "coding":[
                     {
                        "system":"http://terminology.hl7.org/CodeSystem/v3-ObservationInterpretation",
                        "code":"N"
                     }
                  ]
               }
            ],
            "specimen":{
               "reference":"Specimen/001815333044"
            },
            "referenceRange":[
               {
                  "low":{
                     "value":83.20000,
                     "unit":"fL",
                     "system":"http://unitsofmeasure.org",
                     "code":"fL"
                  },
                  "high":{
                     "value":96.00000,
                     "unit":"fL",
                     "system":"http://unitsofmeasure.org",
                     "code":"fL"
                  }
               }
            ]
         }
      },
      {
         "fullUrl":"Observation/Observation.1.0.0.6",
         "resource":{
            "resourceType":"Observation",
            "id":"Observation.1.0.0.6",
            "meta":{
               "profile":[
                  "https://www.ehealth.fgov.be/standards/fhir/StructureDefinition/be-observation-laboratory"
               ]
            },
            "status":"final",
            "code":{
               "coding":[
                  {
                     "system":"http://loinc.org",
                     "code":"785-6"
                  }
               ],
               "text":"MCH"
            },
            "subject":{
               "reference":"Patient/6803360"
            },
            "effectiveDateTime":"2021-11-04T00:00:00Z",
            "issued":"2021-11-04T13:16:59Z",
            "performer":[
               {
                  "reference":"Practitioner/100"
               }
            ],
            "valueQuantity":{
               "value":31.6000000000,
               "unit":"pg",
               "system":"http://unitsofmeasure.org",
               "code":"pg"
            },
            "interpretation":[
               {
                  "coding":[
                     {
                        "system":"http://terminology.hl7.org/CodeSystem/v3-ObservationInterpretation",
                        "code":"N"
                     }
                  ]
               }
            ],
            "specimen":{
               "reference":"Specimen/001815333044"
            },
            "referenceRange":[
               {
                  "low":{
                     "value":27.80000,
                     "unit":"pg",
                     "system":"http://unitsofmeasure.org",
                     "code":"pg"
                  },
                  "high":{
                     "value":32.50000,
                     "unit":"pg",
                     "system":"http://unitsofmeasure.org",
                     "code":"pg"
                  }
               }
            ]
         }
      },
      {
         "fullUrl":"Observation/Observation.1.0.0.7",
         "resource":{
            "resourceType":"Observation",
            "id":"Observation.1.0.0.7",
            "meta":{
               "profile":[
                  "https://www.ehealth.fgov.be/standards/fhir/StructureDefinition/be-observation-laboratory"
               ]
            },
            "status":"final",
            "code":{
               "coding":[
                  {
                     "system":"http://loinc.org",
                     "code":"786-4"
                  }
               ],
               "text":"MCHC"
            },
            "subject":{
               "reference":"Patient/6803360"
            },
            "effectiveDateTime":"2021-11-04T00:00:00Z",
            "issued":"2021-11-04T13:17:06Z",
            "performer":[
               {
                  "reference":"Practitioner/100"
               }
            ],
            "valueQuantity":{
               "value":34.9000000000,
               "unit":"g/dL",
               "system":"http://unitsofmeasure.org",
               "code":"g/dL"
            },
            "interpretation":[
               {
                  "coding":[
                     {
                        "system":"http://terminology.hl7.org/CodeSystem/v3-ObservationInterpretation",
                        "code":"N"
                     }
                  ]
               }
            ],
            "specimen":{
               "reference":"Specimen/001815333044"
            },
            "referenceRange":[
               {
                  "low":{
                     "value":32.30000,
                     "unit":"g/dL",
                     "system":"http://unitsofmeasure.org",
                     "code":"g/dL"
                  },
                  "high":{
                     "value":35.70000,
                     "unit":"g/dL",
                     "system":"http://unitsofmeasure.org",
                     "code":"g/dL"
                  }
               }
            ]
         }
      },
      {
         "fullUrl":"Observation/Observation.1.0.0.8",
         "resource":{
            "resourceType":"Observation",
            "id":"Observation.1.0.0.8",
            "meta":{
               "profile":[
                  "https://www.ehealth.fgov.be/standards/fhir/StructureDefinition/be-observation-laboratory"
               ]
            },
            "status":"final",
            "code":{
               "coding":[
                  {
                     "system":"http://loinc.org",
                     "code":"6690-2"
                  }
               ],
               "text":"Leukocyten"
            },
            "subject":{
               "reference":"Patient/6803360"
            },
            "effectiveDateTime":"2021-11-04T00:00:00Z",
            "issued":"2021-11-04T13:17:11Z",
            "performer":[
               {
                  "reference":"Practitioner/100"
               }
            ],
            "valueQuantity":{
               "value":3810.0000000000,
               "unit":"/uL",
               "system":"http://unitsofmeasure.org",
               "code":"/uL"
            },
            "interpretation":[
               {
                  "coding":[
                     {
                        "system":"http://terminology.hl7.org/CodeSystem/v3-ObservationInterpretation",
                        "code":"N"
                     }
                  ]
               }
            ],
            "specimen":{
               "reference":"Specimen/001815333044"
            },
            "referenceRange":[
               {
                  "low":{
                     "value":3720.00000,
                     "unit":"/uL",
                     "system":"http://unitsofmeasure.org",
                     "code":"/uL"
                  },
                  "high":{
                     "value":10540.00000,
                     "unit":"/uL",
                     "system":"http://unitsofmeasure.org",
                     "code":"/uL"
                  }
               }
            ]
         }
      },
      {
         "fullUrl":"Observation/Observation.1.1.0.0",
         "resource":{
            "resourceType":"Observation",
            "id":"Observation.1.1.0.0",
            "meta":{
               "profile":[
                  "https://www.ehealth.fgov.be/standards/fhir/StructureDefinition/be-observation-laboratory"
               ]
            },
            "status":"preliminary",
            "code":{
               "text":"Formule"
            },
            "subject":{
               "reference":"Patient/6803360"
            },
            "effectiveDateTime":"2021-11-04T00:00:00Z",
            "performer":[
               {
                  "reference":"Practitioner/100"
               }
            ],
            "hasMember":[
               {
                  "reference":"Observation/Observation.1.1.0.1"
               },
               {
                  "reference":"Observation/Observation.1.1.0.2"
               },
               {
                  "reference":"Observation/Observation.1.1.0.3"
               },
               {
                  "reference":"Observation/Observation.1.1.0.4"
               },
               {
                  "reference":"Observation/Observation.1.1.0.5"
               }
            ]
         }
      },
      {
         "fullUrl":"Observation/Observation.1.1.0.1",
         "resource":{
            "resourceType":"Observation",
            "id":"Observation.1.1.0.1",
            "meta":{
               "profile":[
                  "https://www.ehealth.fgov.be/standards/fhir/StructureDefinition/be-observation-laboratory"
               ]
            },
            "status":"final",
            "code":{
               "coding":[
                  {
                     "system":"http://loinc.org",
                     "code":"26511-6"
                  }
               ],
               "text":"Neutrofiele segmenten"
            },
            "subject":{
               "reference":"Patient/6803360"
            },
            "effectiveDateTime":"2021-11-04T00:00:00Z",
            "issued":"2021-11-04T13:17:29Z",
            "performer":[
               {
                  "reference":"Practitioner/100"
               }
            ],
            "valueQuantity":{
               "value":47.0000000000,
               "unit":"%",
               "system":"http://unitsofmeasure.org",
               "code":"%"
            },
            "interpretation":[
               {
                  "coding":[
                     {
                        "system":"http://terminology.hl7.org/CodeSystem/v3-ObservationInterpretation",
                        "code":"N"
                     }
                  ]
               }
            ],
            "specimen":{
               "reference":"Specimen/001815333044"
            },
            "referenceRange":[
               {
                  "low":{
                     "value":39.20000,
                     "unit":"%",
                     "system":"http://unitsofmeasure.org",
                     "code":"%"
                  },
                  "high":{
                     "value":72.90000,
                     "unit":"%",
                     "system":"http://unitsofmeasure.org",
                     "code":"%"
                  }
               }
            ]
         }
      },
      {
         "fullUrl":"Observation/Observation.1.1.0.2",
         "resource":{
            "resourceType":"Observation",
            "id":"Observation.1.1.0.2",
            "meta":{
               "profile":[
                  "https://www.ehealth.fgov.be/standards/fhir/StructureDefinition/be-observation-laboratory"
               ]
            },
            "status":"final",
            "code":{
               "coding":[
                  {
                     "system":"http://loinc.org",
                     "code":"26450-7"
                  }
               ],
               "text":"Eosinofielen"
            },
            "subject":{
               "reference":"Patient/6803360"
            },
            "effectiveDateTime":"2021-11-04T00:00:00Z",
            "issued":"2021-11-04T13:17:41Z",
            "performer":[
               {
                  "reference":"Practitioner/100"
               }
            ],
            "valueQuantity":{
               "value":0.0000000000,
               "unit":"%",
               "system":"http://unitsofmeasure.org",
               "code":"%"
            },
            "interpretation":[
               {
                  "coding":[
                     {
                        "system":"http://terminology.hl7.org/CodeSystem/v3-ObservationInterpretation",
                        "code":"N"
                     }
                  ]
               }
            ],
            "specimen":{
               "reference":"Specimen/001815333044"
            },
            "referenceRange":[
               {
                  "high":{
                     "value":8.40000,
                     "unit":"%",
                     "system":"http://unitsofmeasure.org",
                     "code":"%"
                  }
               }
            ]
         }
      },
      {
         "fullUrl":"Observation/Observation.1.1.0.3",
         "resource":{
            "resourceType":"Observation",
            "id":"Observation.1.1.0.3",
            "meta":{
               "profile":[
                  "https://www.ehealth.fgov.be/standards/fhir/StructureDefinition/be-observation-laboratory"
               ]
            },
            "status":"final",
            "code":{
               "coding":[
                  {
                     "system":"http://loinc.org",
                     "code":"30180-4"
                  }
               ],
               "text":"Basofielen"
            },
            "subject":{
               "reference":"Patient/6803360"
            },
            "effectiveDateTime":"2021-11-04T00:00:00Z",
            "issued":"2021-11-04T13:17:54Z",
            "performer":[
               {
                  "reference":"Practitioner/100"
               }
            ],
            "valueQuantity":{
               "value":1.0000000000,
               "unit":"%",
               "system":"http://unitsofmeasure.org",
               "code":"%"
            },
            "interpretation":[
               {
                  "coding":[
                     {
                        "system":"http://terminology.hl7.org/CodeSystem/v3-ObservationInterpretation",
                        "code":"N"
                     }
                  ]
               }
            ],
            "specimen":{
               "reference":"Specimen/001815333044"
            },
            "referenceRange":[
               {
                  "high":{
                     "value":1.50000,
                     "unit":"%",
                     "system":"http://unitsofmeasure.org",
                     "code":"%"
                  }
               }
            ]
         }
      },
      {
         "fullUrl":"Observation/Observation.1.1.0.4",
         "resource":{
            "resourceType":"Observation",
            "id":"Observation.1.1.0.4",
            "meta":{
               "profile":[
                  "https://www.ehealth.fgov.be/standards/fhir/StructureDefinition/be-observation-laboratory"
               ]
            },
            "status":"final",
            "code":{
               "coding":[
                  {
                     "system":"http://loinc.org",
                     "code":"26478-8"
                  }
               ],
               "text":"Lymfocyten"
            },
            "subject":{
               "reference":"Patient/6803360"
            },
            "effectiveDateTime":"2021-11-04T00:00:00Z",
            "issued":"2021-11-04T13:17:58Z",
            "performer":[
               {
                  "reference":"Practitioner/100"
               }
            ],
            "valueQuantity":{
               "value":34.0000000000,
               "unit":"%",
               "system":"http://unitsofmeasure.org",
               "code":"%"
            },
            "interpretation":[
               {
                  "coding":[
                     {
                        "system":"http://terminology.hl7.org/CodeSystem/v3-ObservationInterpretation",
                        "code":"N"
                     }
                  ]
               }
            ],
            "specimen":{
               "reference":"Specimen/001815333044"
            },
            "referenceRange":[
               {
                  "low":{
                     "value":15.70000,
                     "unit":"%",
                     "system":"http://unitsofmeasure.org",
                     "code":"%"
                  },
                  "high":{
                     "value":47.00000,
                     "unit":"%",
                     "system":"http://unitsofmeasure.org",
                     "code":"%"
                  }
               }
            ]
         }
      },
      {
         "fullUrl":"Observation/Observation.1.1.0.5",
         "resource":{
            "resourceType":"Observation",
            "id":"Observation.1.1.0.5",
            "meta":{
               "profile":[
                  "https://www.ehealth.fgov.be/standards/fhir/StructureDefinition/be-observation-laboratory"
               ]
            },
            "status":"final",
            "code":{
               "coding":[
                  {
                     "system":"http://loinc.org",
                     "code":"26485-3"
                  }
               ],
               "text":"Monocyten"
            },
            "subject":{
               "reference":"Patient/6803360"
            },
            "effectiveDateTime":"2021-11-04T00:00:00Z",
            "issued":"2021-11-04T13:18:02Z",
            "performer":[
               {
                  "reference":"Practitioner/100"
               }
            ],
            "valueQuantity":{
               "value":18.0000000000,
               "unit":"%",
               "system":"http://unitsofmeasure.org",
               "code":"%"
            },
            "interpretation":[
               {
                  "coding":[
                     {
                        "system":"http://terminology.hl7.org/CodeSystem/v3-ObservationInterpretation",
                        "code":"H"
                     }
                  ]
               }
            ],
            "specimen":{
               "reference":"Specimen/001815333044"
            },
            "referenceRange":[
               {
                  "low":{
                     "value":5.70000,
                     "unit":"%",
                     "system":"http://unitsofmeasure.org",
                     "code":"%"
                  },
                  "high":{
                     "value":13.70000,
                     "unit":"%",
                     "system":"http://unitsofmeasure.org",
                     "code":"%"
                  }
               }
            ]
         }
      },
      {
         "fullUrl":"Observation/Observation.1.2.0.0",
         "resource":{
            "resourceType":"Observation",
            "id":"Observation.1.2.0.0",
            "meta":{
               "profile":[
                  "https://www.ehealth.fgov.be/standards/fhir/StructureDefinition/be-observation-laboratory"
               ]
            },
            "status":"preliminary",
            "code":{
               "text":"Formule (absoluut)"
            },
            "subject":{
               "reference":"Patient/6803360"
            },
            "effectiveDateTime":"2021-11-04T00:00:00Z",
            "performer":[
               {
                  "reference":"Practitioner/100"
               }
            ],
            "hasMember":[
               {
                  "reference":"Observation/Observation.1.2.0.1"
               },
               {
                  "reference":"Observation/Observation.1.2.0.2"
               },
               {
                  "reference":"Observation/Observation.1.2.0.3"
               },
               {
                  "reference":"Observation/Observation.1.2.0.4"
               },
               {
                  "reference":"Observation/Observation.1.2.0.5"
               },
               {
                  "reference":"Observation/Observation.1.2.0.6"
               }
            ]
         }
      },
      {
         "fullUrl":"Observation/Observation.1.2.0.1",
         "resource":{
            "resourceType":"Observation",
            "id":"Observation.1.2.0.1",
            "meta":{
               "profile":[
                  "https://www.ehealth.fgov.be/standards/fhir/StructureDefinition/be-observation-laboratory"
               ]
            },
            "status":"final",
            "code":{
               "coding":[
                  {
                     "system":"http://loinc.org",
                     "code":"26499-4"
                  }
               ],
               "text":"Neutrofiele segmenten"
            },
            "subject":{
               "reference":"Patient/6803360"
            },
            "effectiveDateTime":"2021-11-04T00:00:00Z",
            "issued":"2021-11-04T13:17:29Z",
            "performer":[
               {
                  "reference":"Practitioner/100"
               }
            ],
            "valueQuantity":{
               "value":1791.0000000000,
               "unit":"/uL",
               "system":"http://unitsofmeasure.org",
               "code":"/uL"
            },
            "interpretation":[
               {
                  "coding":[
                     {
                        "system":"http://terminology.hl7.org/CodeSystem/v3-ObservationInterpretation",
                        "code":"N"
                     }
                  ]
               }
            ],
            "specimen":{
               "reference":"Specimen/001815333044"
            },
            "referenceRange":[
               {
                  "low":{
                     "value":1760.00000,
                     "unit":"/uL",
                     "system":"http://unitsofmeasure.org",
                     "code":"/uL"
                  },
                  "high":{
                     "value":7031.00000,
                     "unit":"/uL",
                     "system":"http://unitsofmeasure.org",
                     "code":"/uL"
                  }
               }
            ]
         }
      },
      {
         "fullUrl":"Observation/Observation.1.2.0.2",
         "resource":{
            "resourceType":"Observation",
            "id":"Observation.1.2.0.2",
            "meta":{
               "profile":[
                  "https://www.ehealth.fgov.be/standards/fhir/StructureDefinition/be-observation-laboratory"
               ]
            },
            "status":"final",
            "code":{
               "coding":[
                  {
                     "system":"http://loinc.org",
                     "code":"26449-9"
                  }
               ],
               "text":"Eosinofielen"
            },
            "subject":{
               "reference":"Patient/6803360"
            },
            "effectiveDateTime":"2021-11-04T00:00:00Z",
            "issued":"2021-11-04T13:17:41Z",
            "performer":[
               {
                  "reference":"Practitioner/100"
               }
            ],
            "valueQuantity":{
               "value":0.0000000000,
               "unit":"/uL",
               "system":"http://unitsofmeasure.org",
               "code":"/uL"
            },
            "interpretation":[
               {
                  "coding":[
                     {
                        "system":"http://terminology.hl7.org/CodeSystem/v3-ObservationInterpretation",
                        "code":"N"
                     }
                  ]
               }
            ],
            "specimen":{
               "reference":"Specimen/001815333044"
            },
            "referenceRange":[
               {
                  "high":{
                     "value":559.00000,
                     "unit":"/uL",
                     "system":"http://unitsofmeasure.org",
                     "code":"/uL"
                  }
               }
            ]
         }
      },
      {
         "fullUrl":"Observation/Observation.1.2.0.3",
         "resource":{
            "resourceType":"Observation",
            "id":"Observation.1.2.0.3",
            "meta":{
               "profile":[
                  "https://www.ehealth.fgov.be/standards/fhir/StructureDefinition/be-observation-laboratory"
               ]
            },
            "status":"final",
            "code":{
               "coding":[
                  {
                     "system":"http://loinc.org",
                     "code":"26444-0"
                  }
               ],
               "text":"Basofielen"
            },
            "subject":{
               "reference":"Patient/6803360"
            },
            "effectiveDateTime":"2021-11-04T00:00:00Z",
            "issued":"2021-11-04T13:17:54Z",
            "performer":[
               {
                  "reference":"Practitioner/100"
               }
            ],
            "valueQuantity":{
               "value":38.0000000000,
               "unit":"/uL",
               "system":"http://unitsofmeasure.org",
               "code":"/uL"
            },
            "interpretation":[
               {
                  "coding":[
                     {
                        "system":"http://terminology.hl7.org/CodeSystem/v3-ObservationInterpretation",
                        "code":"N"
                     }
                  ]
               }
            ],
            "specimen":{
               "reference":"Specimen/001815333044"
            },
            "referenceRange":[
               {
                  "high":{
                     "value":102.00000,
                     "unit":"/uL",
                     "system":"http://unitsofmeasure.org",
                     "code":"/uL"
                  }
               }
            ]
         }
      },
      {
         "fullUrl":"Observation/Observation.1.2.0.4",
         "resource":{
            "resourceType":"Observation",
            "id":"Observation.1.2.0.4",
            "meta":{
               "profile":[
                  "https://www.ehealth.fgov.be/standards/fhir/StructureDefinition/be-observation-laboratory"
               ]
            },
            "status":"final",
            "code":{
               "coding":[
                  {
                     "system":"http://loinc.org",
                     "code":"26474-7"
                  }
               ],
               "text":"Lymfocyten"
            },
            "subject":{
               "reference":"Patient/6803360"
            },
            "effectiveDateTime":"2021-11-04T00:00:00Z",
            "issued":"2021-11-04T13:17:58Z",
            "performer":[
               {
                  "reference":"Practitioner/100"
               }
            ],
            "valueQuantity":{
               "value":1295.0000000000,
               "unit":"/uL",
               "system":"http://unitsofmeasure.org",
               "code":"/uL"
            },
            "interpretation":[
               {
                  "coding":[
                     {
                        "system":"http://terminology.hl7.org/CodeSystem/v3-ObservationInterpretation",
                        "code":"N"
                     }
                  ]
               }
            ],
            "specimen":{
               "reference":"Specimen/001815333044"
            },
            "referenceRange":[
               {
                  "low":{
                     "value":964.00000,
                     "unit":"/uL",
                     "system":"http://unitsofmeasure.org",
                     "code":"/uL"
                  },
                  "high":{
                     "value":3440.00000,
                     "unit":"/uL",
                     "system":"http://unitsofmeasure.org",
                     "code":"/uL"
                  }
               }
            ]
         }
      },
      {
         "fullUrl":"Observation/Observation.1.2.0.5",
         "resource":{
            "resourceType":"Observation",
            "id":"Observation.1.2.0.5",
            "meta":{
               "profile":[
                  "https://www.ehealth.fgov.be/standards/fhir/StructureDefinition/be-observation-laboratory"
               ]
            },
            "status":"final",
            "code":{
               "coding":[
                  {
                     "system":"http://loinc.org",
                     "code":"26484-6"
                  }
               ],
               "text":"Monocyten"
            },
            "subject":{
               "reference":"Patient/6803360"
            },
            "effectiveDateTime":"2021-11-04T00:00:00Z",
            "issued":"2021-11-04T13:18:02Z",
            "performer":[
               {
                  "reference":"Practitioner/100"
               }
            ],
            "valueQuantity":{
               "value":686.0000000000,
               "unit":"/uL",
               "system":"http://unitsofmeasure.org",
               "code":"/uL"
            },
            "interpretation":[
               {
                  "coding":[
                     {
                        "system":"http://terminology.hl7.org/CodeSystem/v3-ObservationInterpretation",
                        "code":"N"
                     }
                  ]
               }
            ],
            "specimen":{
               "reference":"Specimen/001815333044"
            },
            "referenceRange":[
               {
                  "low":{
                     "value":320.00000,
                     "unit":"/uL",
                     "system":"http://unitsofmeasure.org",
                     "code":"/uL"
                  },
                  "high":{
                     "value":979.00000,
                     "unit":"/uL",
                     "system":"http://unitsofmeasure.org",
                     "code":"/uL"
                  }
               }
            ]
         }
      },
      {
         "fullUrl":"Observation/Observation.1.2.0.6",
         "resource":{
            "resourceType":"Observation",
            "id":"Observation.1.2.0.6",
            "meta":{
               "profile":[
                  "https://www.ehealth.fgov.be/standards/fhir/StructureDefinition/be-observation-laboratory"
               ]
            },
            "status":"final",
            "code":{
               "coding":[
                  {
                     "system":"http://loinc.org",
                     "code":"777-3"
                  }
               ],
               "text":"Trombocyten"
            },
            "subject":{
               "reference":"Patient/6803360"
            },
            "effectiveDateTime":"2021-11-04T00:00:00Z",
            "issued":"2021-11-04T13:18:10Z",
            "performer":[
               {
                  "reference":"Practitioner/100"
               }
            ],
            "valueQuantity":{
               "value":151.0000000000,
               "unit":"10*3/uL",
               "system":"http://unitsofmeasure.org",
               "code":"10*3/uL"
            },
            "interpretation":[
               {
                  "coding":[
                     {
                        "system":"http://terminology.hl7.org/CodeSystem/v3-ObservationInterpretation",
                        "code":"N"
                     }
                  ]
               }
            ],
            "specimen":{
               "reference":"Specimen/001815333044"
            },
            "referenceRange":[
               {
                  "low":{
                     "value":148.00000,
                     "unit":"10*3/uL",
                     "system":"http://unitsofmeasure.org",
                     "code":"10*3/uL"
                  },
                  "high":{
                     "value":362.00000,
                     "unit":"10*3/uL",
                     "system":"http://unitsofmeasure.org",
                     "code":"10*3/uL"
                  }
               }
            ]
         }
      },
      {
         "fullUrl":"Observation/Observation.2.0.0.0",
         "resource":{
            "resourceType":"Observation",
            "id":"Observation.2.0.0.0",
            "meta":{
               "profile":[
                  "https://www.ehealth.fgov.be/standards/fhir/StructureDefinition/be-observation-laboratory"
               ]
            },
            "status":"preliminary",
            "code":{
               "text":"INFLAMMATIE"
            },
            "subject":{
               "reference":"Patient/6803360"
            },
            "effectiveDateTime":"2021-11-04T00:00:00Z",
            "performer":[
               {
                  "reference":"Practitioner/100"
               }
            ],
            "hasMember":[
               {
                  "reference":"Observation/Observation.2.0.0.1"
               }
            ]
         }
      },
      {
         "fullUrl":"Observation/Observation.2.0.0.1",
         "resource":{
            "resourceType":"Observation",
            "id":"Observation.2.0.0.1",
            "meta":{
               "profile":[
                  "https://www.ehealth.fgov.be/standards/fhir/StructureDefinition/be-observation-laboratory"
               ]
            },
            "status":"final",
            "code":{
               "coding":[
                  {
                     "system":"http://loinc.org",
                     "code":"1988-5"
                  }
               ],
               "text":"CRP"
            },
            "subject":{
               "reference":"Patient/6803360"
            },
            "effectiveDateTime":"2021-11-04T00:00:00Z",
            "issued":"2021-11-04T13:18:15Z",
            "performer":[
               {
                  "reference":"Practitioner/100"
               }
            ],
            "valueQuantity":{
               "value":63.0000000000,
               "unit":"mg/L",
               "system":"http://unitsofmeasure.org",
               "code":"mg/L"
            },
            "interpretation":[
               {
                  "coding":[
                     {
                        "system":"http://terminology.hl7.org/CodeSystem/v3-ObservationInterpretation",
                        "code":"H"
                     }
                  ]
               }
            ],
            "specimen":{
               "reference":"Specimen/002815333044"
            },
            "referenceRange":[
               {
                  "high":{
                     "value":5.00000,
                     "unit":"mg/L",
                     "system":"http://unitsofmeasure.org",
                     "code":"mg/L"
                  }
               }
            ]
         }
      },
      {
         "fullUrl":"Observation/Observation.3.0.0.0",
         "resource":{
            "resourceType":"Observation",
            "id":"Observation.3.0.0.0",
            "meta":{
               "profile":[
                  "https://www.ehealth.fgov.be/standards/fhir/StructureDefinition/be-observation-laboratory"
               ]
            },
            "status":"preliminary",
            "code":{
               "text":"SCHILDKLIER"
            },
            "subject":{
               "reference":"Patient/6803360"
            },
            "effectiveDateTime":"2021-11-04T00:00:00Z",
            "performer":[
               {
                  "reference":"Practitioner/100"
               }
            ],
            "hasMember":[
               {
                  "reference":"Observation/Observation.3.0.0.1"
               }
            ]
         }
      },
      {
         "fullUrl":"Observation/Observation.3.0.0.1",
         "resource":{
            "resourceType":"Observation",
            "id":"Observation.3.0.0.1",
            "meta":{
               "profile":[
                  "https://www.ehealth.fgov.be/standards/fhir/StructureDefinition/be-observation-laboratory"
               ]
            },
            "status":"final",
            "code":{
               "coding":[
                  {
                     "system":"http://loinc.org",
                     "code":"3016-3"
                  }
               ],
               "text":"TSH"
            },
            "subject":{
               "reference":"Patient/6803360"
            },
            "effectiveDateTime":"2021-11-04T00:00:00Z",
            "issued":"2021-11-04T13:18:22Z",
            "performer":[
               {
                  "reference":"Practitioner/100"
               }
            ],
            "valueQuantity":{
               "value":2.5000000000,
               "unit":"mU/L",
               "system":"http://unitsofmeasure.org",
               "code":"mU/L"
            },
            "interpretation":[
               {
                  "coding":[
                     {
                        "system":"http://terminology.hl7.org/CodeSystem/v3-ObservationInterpretation",
                        "code":"N"
                     }
                  ]
               }
            ],
            "specimen":{
               "reference":"Specimen/002815333044"
            },
            "referenceRange":[
               {
                  "low":{
                     "value":0.27000,
                     "unit":"mU/L",
                     "system":"http://unitsofmeasure.org",
                     "code":"mU/L"
                  },
                  "high":{
                     "value":4.20000,
                     "unit":"mU/L",
                     "system":"http://unitsofmeasure.org",
                     "code":"mU/L"
                  }
               }
            ]
         }
      },
      {
         "fullUrl":"DiagnosticReport/815333044",
         "resource":{
            "resourceType":"DiagnosticReport",
            "id":"815333044",
            "meta":{
               "versionId":"1",
               "profile":[
                  "https://www.ehealth.fgov.be/standards/fhir/StructureDefinition/be-laboratory-report"
               ]
            },
            "language":"nl",
            "identifier":[
               {
                  "system":"http://www.macsys.be/hl7/DiagnosticReport",
                  "value":"815333044"
               }
            ],
            "basedOn":[
               {
                  "reference":"ServiceRequest/815333044"
               }
            ],
            "status":"preliminary",
            "category":[
               {
                  "coding":[
                     {
                        "system":"http://terminology.hl7.org/CodeSystem/v2-0074",
                        "code":"LAB",
                        "display":"Laboratory"
                     }
                  ]
               }
            ],
            "code":{
               "coding":[
                  {
                     "system":"http://loinc.org",
                     "code":"26436-6",
                     "display":"Laboratory studies (set)"
                  }
               ]
            },
            "subject":{
               "reference":"Patient/6803360"
            },
            "effectiveDateTime":"2021-11-04T00:00:00Z",
            "issued":"2021-11-09T14:15:15Z",
            "performer":[
               {
                  "reference":"Organization/81365677998"
               }
            ],
            "resultsInterpreter":[
               {
                  "reference":"Practitioner/100"
               }
            ],
            "specimen":[
               {
                  "reference":"Specimen/001815333044"
               },
               {
                  "reference":"Specimen/002815333044"
               }
            ],
            "result":[
               {
                  "reference":"Observation/Observation.1.0.0.0"
               },
               {
                  "reference":"Observation/Observation.2.0.0.0"
               },
               {
                  "reference":"Observation/Observation.3.0.0.0"
               }
            ]
         }
      },
      {
         "fullUrl":"Organization/81365677998",
         "resource":{
            "resourceType":"Organization",
            "id":"81365677998",
            "meta":{
               "profile":[
                  "https://www.ehealth.fgov.be/standards/fhir/StructureDefinition/be-organization"
               ]
            },
            "identifier":[
               {
                  "use":"official",
                  "type":{
                     "coding":[
                        {
                           "system":"http://terminology.hl7.org/CodeSystem/v2-0203",
                           "code":"MD",
                           "display":"Medical License number"
                        }
                     ]
                  },
                  "system":"https://www.ehealth.fgov.be/standards/fhir/NamingSystem/nihdi",
                  "value":"81365677998"
               }
            ],
            "active":true,
            "type":[
               {
                  "coding":[
                     {
                        "system":"https://www.ehealth.fgov.be/standards/fhir/CodeSystem/cd-hcparty",
                        "code":"orglaboratory"
                     }
                  ]
               }
            ],
            "name":"CENTRUM VOOR MEDISCHE ANALYSE",
            "telecom":[
               {
                  "system":"phone",
                  "value":"014/28.50.00",
                  "use":"work"
               },
               {
                  "system":"fax",
                  "value":"014/22.56.08",
                  "use":"work"
               },
               {
                  "system":"email",
                  "value":"info@cma.be",
                  "use":"work"
               },
               {
                  "system":"url",
                  "value":"http://www.cma.be",
                  "use":"work"
               }
            ],
            "address":[
               {
                  "use":"work",
                  "type":"both",
                  "line":[
                     "Oud-Strijderslaan 199"
                  ],
                  "city":"Herentals",
                  "postalCode":"2200",
                  "country":"BE"
               }
            ]
         }
      },
      {
         "fullUrl":"Practitioner/8152",
         "resource":{
            "resourceType":"Practitioner",
            "id":"8152",
            "meta":{
               "profile":[
                  "https://www.ehealth.fgov.be/standards/fhir/StructureDefinition/be-practitioner"
               ]
            },
            "identifier":[
               {
                  "use":"official",
                  "system":"https://www.ehealth.fgov.be/standards/fhir/NamingSystem/nihdi",
                  "value":"11849242860"
               }
            ],
            "name":[
               {
                  "use":"official",
                  "family":"Waegemans",
                  "given":[
                     "Stefan"
                  ],
                  "prefix":[
                     "Dr."
                  ]
               }
            ],
            "telecom":[
               {
                  "system":"email",
                  "value":"stefan.waegemans@cma.be",
                  "use":"work"
               },
               {
                  "system":"fax",
                  "value":"(+32)11/243291",
                  "use":"work"
               },
               {
                  "system":"phone",
                  "value":"(+32)473/924346",
                  "use":"mobile"
               },
               {
                  "system":"phone",
                  "value":"(+32)11/225288",
                  "use":"work"
               }
            ],
            "address":[
               {
                  "use":"work",
                  "type":"both",
                  "line":[
                     "Willekensmolenstraat 88/2"
                  ],
                  "city":"Hasselt",
                  "postalCode":"3500",
                  "country":"BE"
               }
            ],
            "gender":"unknown"
         }
      },
      {
         "fullUrl":"Practitioner/100",
         "resource":{
            "resourceType":"Practitioner",
            "id":"100",
            "meta":{
               "profile":[
                  "https://www.ehealth.fgov.be/standards/fhir/StructureDefinition/be-practitioner"
               ]
            },
            "identifier":[
               {
                  "use":"official",
                  "system":"https://www.ehealth.fgov.be/standards/fhir/NamingSystem/nihdi",
                  "value":"81365677001"
               }
            ],
            "name":[
               {
                  "use":"official",
                  "family":"Testdokter",
                  "given":[
                     "Test"
                  ],
                  "prefix":[
                     "Dr."
                  ]
               }
            ],
            "telecom":[
               {
                  "system":"email",
                  "value":"lander.verstappen@macsys.be",
                  "use":"work"
               },
               {
                  "system":"fax",
                  "value":"(+32)14/225608",
                  "use":"work"
               },
               {
                  "system":"phone",
                  "value":"(+32)486/734311",
                  "use":"mobile"
               },
               {
                  "system":"phone",
                  "value":"(+32)14/285000",
                  "use":"work"
               },
               {
                  "system":"phone",
                  "value":"(+32)499/520100",
                  "use":"work"
               },
               {
                  "system":"url",
                  "value":"https://test.be/",
                  "use":"work"
               }
            ],
            "address":[
               {
                  "use":"work",
                  "type":"both",
                  "line":[
                     "Putrandje 5"
                  ],
                  "city":"Bouwel",
                  "postalCode":"2288",
                  "country":"BE"
               }
            ],
            "gender":"unknown"
         }
      },
      {
         "fullUrl":"Patient/6803360",
         "resource":{
            "resourceType":"Patient",
            "id":"6803360",
            "meta":{
               "profile":[
                  "https://www.ehealth.fgov.be/standards/fhir/StructureDefinition/be-patient"
               ]
            },
            "identifier":[
               {
                  "use":"official",
                  "system":"https://www.ehealth.fgov.be/standards/fhir/NamingSystem/ssin",
                  "value":"72032444577"
               }
            ],
            "active":true,
            "name":[
               {
                  "use":"official",
                  "family":"Waegemans",
                  "given":[
                     "Stefan"
                  ]
               }
            ],
            "telecom":[
               {
                  "system":"phone",
                  "value":"+3214285000",
                  "use":"home"
               },
               {
                  "system":"email",
                  "value":"STEFAN.WAEGEMANS@CMA.BE",
                  "use":"home"
               }
            ],
            "address":[
               {
                  "use":"home",
                  "type":"both",
                  "line":[
                     "Willekensmolenstraat 88/2"
                  ],
                  "city":"Hasselt",
                  "postalCode":"3500",
                  "country":"BE"
               }
            ],
            "gender":"male",
            "birthDate":"1972-03-24"
         }
      },
      {
         "fullUrl":"ServiceRequest/815333044",
         "resource":{
            "resourceType":"ServiceRequest",
            "id":"815333044",
            "identifier":[
               {
                  "system":"http://www.macsys.be/hl7/ServiceRequest",
                  "value":"815333044"
               }
            ],
            "status":"active",
            "intent":"order",
            "category":[
               {
                  "coding":[
                     {
                        "system":"http://snomed.info/sct",
                        "code":"108252007",
                        "display":"Laboratory procedure"
                     }
                  ]
               }
            ],
            "subject":{
               "reference":"Patient/6803360"
            },
            "priority":"routine",
            "authoredOn":"2021-11-04T13:15:00Z",
            "requester":{
               "reference":"Practitioner/8152"
            }
         }
      }
   ]
}