{"resourceType":"Bundle","type":"document","timestamp":"2021-11-09T14:55:47Z","identifier":{"system":"http://www.macsys.be/hl7/bundle","value":"BelgiumHL7Lab.81365677998.815333045"},"entry":[{"fullUrl":"Composition/815333045","resource":{"resourceType":"Composition","id":"815333045","meta":{"profile":["https://www.ehealth.fgov.be/standards/fhir/StructureDefinition/be-laboratory-report-composition"]},"identifier":{"system":"http://www.macsys.be/hl7/Composition","value":"815333045"},"status":"final","type":{"coding":[{"system":"http://loinc.org","code":"11502-2"}],"text":"Laboratory report"},"subject":{"reference":"Patient/5473807"},"date":"2021-11-09T14:55:47Z","author":[{"reference":"Practitioner/100"}],"title":"Laboratory Report","section":[{"entry":[{"reference":"DiagnosticReport/815333045"}]}]}},{"fullUrl":"Specimen/001815333045","resource":{"resourceType":"Specimen","id":"001815333045","meta":{"profile":["https://www.ehealth.fgov.be/standards/fhir/StructureDefinition/be-specimen-laboratory"]},"identifier":[{"system":"http://www.macsys.be/hl7/Specimen","value":"001815333045"}],"status":"available","type":{"coding":[{"system":"http://snomed.info/sct","code":"119297000","display":"Blood specimen"}],"text":"Serum"},"subject":{"reference":"Patient/5473807"},"receivedTime":"2021-11-04T13:20:48Z","collection":{"collectedDateTime":"2021-11-04T00:00:00Z","collector":{"reference":"Practitioner/8152"}}}},{"fullUrl":"Observation/Observation.1.0.0.0","resource":{"resourceType":"Observation","id":"Observation.1.0.0.0","meta":{"profile":["https://www.ehealth.fgov.be/standards/fhir/StructureDefinition/be-observation-laboratory"]},"status":"final","code":{"text":"SEROLOGIE"},"subject":{"reference":"Patient/5473807"},"effectiveDateTime":"2021-11-04T00:00:00Z","performer":[{"reference":"Practitioner/100"}],"hasMember":[{"reference":"Observation/Observation.1.1.0.0"}]}},{"fullUrl":"Observation/Observation.1.1.0.0","resource":{"resourceType":"Observation","id":"Observation.1.1.0.0","meta":{"profile":["https://www.ehealth.fgov.be/standards/fhir/StructureDefinition/be-observation-laboratory"]},"status":"final","code":{"text":"Viraal"},"subject":{"reference":"Patient/5473807"},"effectiveDateTime":"2021-11-04T00:00:00Z","performer":[{"reference":"Practitioner/100"}],"hasMember":[{"reference":"Observation/Observation.1.1.0.1"},{"reference":"Observation/Observation.1.1.0.2"},{"reference":"Observation/Observation.1.1.0.3"},{"reference":"Observation/Observation.1.1.0.4"},{"reference":"Observation/Observation.1.1.0.5"}]}},{"fullUrl":"Observation/Observation.1.1.0.1","resource":{"resourceType":"Observation","id":"Observation.1.1.0.1","meta":{"profile":["https://www.ehealth.fgov.be/standards/fhir/StructureDefinition/be-observation-laboratory"]},"status":"final","code":{"coding":[{"system":"http://loinc.org","code":"5124-3"}],"text":"CMV IgG"},"subject":{"reference":"Patient/5473807"},"effectiveDateTime":"2021-11-04T00:00:00Z","issued":"2021-11-04T13:26:21Z","performer":[{"reference":"Practitioner/100"}],"valueString":"Positief","interpretation":[{"coding":[{"system":"http://terminology.hl7.org/CodeSystem/v3-ObservationInterpretation","code":"N"}]}],"note":[{"text":"24 kU/L (Grijze zone: 0,5 - <1,0)"}],"specimen":{"reference":"Specimen/001815333045"}}},{"fullUrl":"Observation/Observation.1.1.0.2","resource":{"resourceType":"Observation","id":"Observation.1.1.0.2","meta":{"profile":["https://www.ehealth.fgov.be/standards/fhir/StructureDefinition/be-observation-laboratory"]},"status":"final","code":{"coding":[{"system":"http://loinc.org","code":"22312-3"}],"text":"Hep.A totaal (IgM+IgG)"},"subject":{"reference":"Patient/5473807"},"effectiveDateTime":"2021-11-04T00:00:00Z","issued":"2021-11-04T13:24:44Z","performer":[{"reference":"Practitioner/100"}],"valueString":"Positief","interpretation":[{"coding":[{"system":"http://terminology.hl7.org/CodeSystem/v3-ObservationInterpretation","code":"N"}]}],"note":[{"text":"Index: 0,02 (Grijze zone: >0,90 - 1,10)"}],"specimen":{"reference":"Specimen/001815333045"}}},{"fullUrl":"Observation/Observation.1.1.0.3","resource":{"resourceType":"Observation","id":"Observation.1.1.0.3","meta":{"profile":["https://www.ehealth.fgov.be/standards/fhir/StructureDefinition/be-observation-laboratory"]},"status":"final","code":{"coding":[{"system":"http://loinc.org","code":"58452-4"}],"text":"Hep. Bs Ag"},"subject":{"reference":"Patient/5473807"},"effectiveDateTime":"2021-11-04T00:00:00Z","issued":"2021-11-04T13:27:46Z","performer":[{"reference":"Practitioner/100"}],"valueString":"Positief","interpretation":[{"coding":[{"system":"http://terminology.hl7.org/CodeSystem/v3-ObservationInterpretation","code":"H"}]}],"note":[{"text":"Index: 3156 (Grijze zone: 0,90 - <1,00)"}],"specimen":{"reference":"Specimen/001815333045"},"referenceRange":[{"text":"Negatief -"}]}},{"fullUrl":"Observation/Observation.1.1.0.4","resource":{"resourceType":"Observation","id":"Observation.1.1.0.4","meta":{"profile":["https://www.ehealth.fgov.be/standards/fhir/StructureDefinition/be-observation-laboratory"]},"status":"final","code":{"coding":[{"system":"http://loinc.org","code":"16935-9"}],"text":"Hep. Bs AL"},"subject":{"reference":"Patient/5473807"},"effectiveDateTime":"2021-11-04T00:00:00Z","issued":"2021-11-04T13:23:33Z","performer":[{"reference":"Practitioner/100"}],"valueQuantity":{"value":64.0000000000,"unit":"[IU]/L","system":"http://unitsofmeasure.org","code":"[IU]/L"},"interpretation":[{"coding":[{"system":"http://terminology.hl7.org/CodeSystem/v3-ObservationInterpretation","code":"N"}]}],"specimen":{"reference":"Specimen/001815333045"}}},{"fullUrl":"Observation/Observation.1.1.0.5","resource":{"resourceType":"Observation","id":"Observation.1.1.0.5","meta":{"profile":["https://www.ehealth.fgov.be/standards/fhir/StructureDefinition/be-observation-laboratory"]},"status":"final","code":{"coding":[{"system":"http://loinc.org","code":"16128-1"}],"text":"Hep. C AL"},"subject":{"reference":"Patient/5473807"},"effectiveDateTime":"2021-11-04T00:00:00Z","issued":"2021-11-04T13:23:09Z","performer":[{"reference":"Practitioner/100"}],"valueString":"Negatief","interpretation":[{"coding":[{"system":"http://terminology.hl7.org/CodeSystem/v3-ObservationInterpretation","code":"N"}]}],"specimen":{"reference":"Specimen/001815333045"},"referenceRange":[{"text":"Negatief -"}]}},{"fullUrl":"DiagnosticReport/815333045","resource":{"resourceType":"DiagnosticReport","id":"815333045","meta":{"versionId":"1","profile":["https://www.ehealth.fgov.be/standards/fhir/StructureDefinition/be-laboratory-report"]},"language":"nl","identifier":[{"system":"http://www.macsys.be/hl7/DiagnosticReport","value":"815333045"}],"basedOn":[{"reference":"ServiceRequest/815333045"}],"status":"final","category":[{"coding":[{"system":"http://terminology.hl7.org/CodeSystem/v2-0074","code":"LAB","display":"Laboratory"}]}],"code":{"coding":[{"system":"http://loinc.org","code":"26436-6","display":"Laboratory studies (set)"}]},"subject":{"reference":"Patient/5473807"},"effectiveDateTime":"2021-11-04T00:00:00Z","issued":"2021-11-09T14:56:42Z","performer":[{"reference":"Organization/81365677998"}],"resultsInterpreter":[{"reference":"Practitioner/100"}],"specimen":[{"reference":"Specimen/001815333045"}],"result":[{"reference":"Observation/Observation.1.0.0.0"}]}},{"fullUrl":"Organization/81365677998","resource":{"resourceType":"Organization","id":"81365677998","meta":{"profile":["https://www.ehealth.fgov.be/standards/fhir/StructureDefinition/be-organization"]},"identifier":[{"use":"official","type":{"coding":[{"system":"http://terminology.hl7.org/CodeSystem/v2-0203","code":"MD","display":"Medical License number"}]},"system":"https://www.ehealth.fgov.be/standards/fhir/NamingSystem/nihdi","value":"81365677998"}],"active":true,"type":[{"coding":[{"system":"https://www.ehealth.fgov.be/standards/fhir/CodeSystem/cd-hcparty","code":"orglaboratory"}]}],"name":"CENTRUM VOOR MEDISCHE ANALYSE","telecom":[{"system":"phone","value":"014/28.50.00","use":"work"},{"system":"fax","value":"014/22.56.08","use":"work"},{"system":"email","value":"info@cma.be","use":"work"},{"system":"url","value":"http://www.cma.be","use":"work"}],"address":[{"use":"work","type":"both","line":["Oud-Strijderslaan 199"],"city":"Herentals","postalCode":"2200","country":"BE"}]}},{"fullUrl":"Practitioner/8152","resource":{"resourceType":"Practitioner","id":"8152","meta":{"profile":["https://www.ehealth.fgov.be/standards/fhir/StructureDefinition/be-practitioner"]},"identifier":[{"use":"official","system":"https://www.ehealth.fgov.be/standards/fhir/NamingSystem/nihdi","value":"11849242860"}],"name":[{"use":"official","family":"Waegemans","given":["Stefan"],"prefix":["Dr."]}],"telecom":[{"system":"email","value":"stefan.waegemans@cma.be","use":"work"},{"system":"fax","value":"(+32)11/243291","use":"work"},{"system":"phone","value":"(+32)473/924346","use":"mobile"},{"system":"phone","value":"(+32)11/225288","use":"work"}],"address":[{"use":"work","type":"both","line":["Willekensmolenstraat 88/2"],"city":"Hasselt","postalCode":"3500","country":"BE"}],"gender":"unknown"}},{"fullUrl":"Practitioner/100","resource":{"resourceType":"Practitioner","id":"100","meta":{"profile":["https://www.ehealth.fgov.be/standards/fhir/StructureDefinition/be-practitioner"]},"identifier":[{"use":"official","system":"https://www.ehealth.fgov.be/standards/fhir/NamingSystem/nihdi","value":"81365677001"}],"name":[{"use":"official","family":"Testdokter","given":["Test"],"prefix":["Dr."]}],"telecom":[{"system":"email","value":"lander.verstappen@macsys.be","use":"work"},{"system":"fax","value":"(+32)14/225608","use":"work"},{"system":"phone","value":"(+32)486/734311","use":"mobile"},{"system":"phone","value":"(+32)14/285000","use":"work"},{"system":"phone","value":"(+32)499/520100","use":"work"},{"system":"url","value":"https://test.be/","use":"work"}],"address":[{"use":"work","type":"both","line":["Putrandje 5"],"city":"Bouwel","postalCode":"2288","country":"BE"}],"gender":"unknown"}},{"fullUrl":"Patient/5473807","resource":{"resourceType":"Patient","id":"5473807","meta":{"profile":["https://www.ehealth.fgov.be/standards/fhir/StructureDefinition/be-patient"]},"identifier":[{"use":"official","system":"https://www.ehealth.fgov.be/standards/fhir/NamingSystem/ssin","value":"66042620739"}],"active":true,"name":[{"use":"official","family":"Tollenaere","given":["Tom"]}],"telecom":[{"system":"phone","value":"0497054020","use":"home"},{"system":"email","value":"TOM.TOLLENAERE@MACSYS.BE","use":"home"}],"address":[{"use":"home","type":"both","line":["Beukenlaan 63/A"],"city":"Rotselaar","postalCode":"3110","country":"BE"}],"gender":"male","birthDate":"1966-04-26"}},{"fullUrl":"ServiceRequest/815333045","resource":{"resourceType":"ServiceRequest","id":"815333045","identifier":[{"system":"http://www.macsys.be/hl7/ServiceRequest","value":"815333045"}],"status":"completed","intent":"order","category":[{"coding":[{"system":"http://snomed.info/sct","code":"108252007","display":"Laboratory procedure"}]}],"subject":{"reference":"Patient/5473807"},"priority":"routine","authoredOn":"2021-11-04T13:20:00Z","requester":{"reference":"Practitioner/8152"}}}]}