{"resourceType":"Bundle","type":"document","timestamp":"2021-11-24T09:00:03Z","identifier":{"system":"https://www.ehealth.fgov.be/hl7/bundle","value":"81365677998.815333043.9"},"entry":[{"fullUrl":"Composition/815333043","resource":{"resourceType":"Composition","id":"815333043","meta":{"profile":["https://www.ehealth.fgov.be/standards/fhir/StructureDefinition/be-laboratory-report-composition"]},"text":{"status":"generated","div":"<div xmlns=\"http://www.w3.org/1999/xhtml\"><p><b>id: </b>815333043</p><p><b>status: </b>final</p><p><b>type: </b>http://loinc.org 11502-2 Laboratory report</p><p><b>date: </b>2021-11-24T09:00:03+01:00</p><p><b>author: </b>Practitioner/Responsible</p><p><b>title: </b>Laboratory Report</p></div>"},"identifier":{"system":"http://www.macsys.be/hl7/Composition","value":"815333043"},"status":"final","type":{"coding":[{"system":"http://loinc.org","code":"11502-2"}],"text":"Laboratory report"},"subject":{"reference":"Patient/996321"},"date":"2021-11-24T09:00:03+01:00","author":[{"reference":"Practitioner/Responsible"}],"title":"Laboratory Report","section":[{"entry":[{"reference":"DiagnosticReport/815333043"}]}]}},{"fullUrl":"Specimen/001815333043","resource":{"resourceType":"Specimen","id":"001815333043","meta":{"profile":["https://www.ehealth.fgov.be/standards/fhir/StructureDefinition/be-specimen-laboratory"]},"text":{"status":"generated","div":"<div xmlns=\"http://www.w3.org/1999/xhtml\"><p><b>id: </b>001815333043</p><p><b>status: </b>available</p><p><b>type: </b>http://terminology.hl7.org/CodeSystem/v2-0487 SER Serum EDTA-volbloed</p><p><b>receivedTime: </b>2021-11-04T13:08:58+01:00</p><p><b>collector: </b>Practitioner/8152</p></div>"},"identifier":[{"system":"http://www.macsys.be/hl7/Specimen","value":"001815333043"}],"status":"available","type":{"coding":[{"system":"http://terminology.hl7.org/CodeSystem/v2-0487","code":"SER","display":"Serum"}],"text":"EDTA-volbloed"},"subject":{"reference":"Patient/996321"},"receivedTime":"2021-11-04T13:08:58+01:00","collection":{"collectedDateTime":"2021-11-04T00:00:00+01:00","collector":{"reference":"Practitioner/8152"}}}},{"fullUrl":"Specimen/002815333043","resource":{"resourceType":"Specimen","id":"002815333043","meta":{"profile":["https://www.ehealth.fgov.be/standards/fhir/StructureDefinition/be-specimen-laboratory"]},"text":{"status":"generated","div":"<div xmlns=\"http://www.w3.org/1999/xhtml\"><p><b>id: </b>002815333043</p><p><b>status: </b>available</p><p><b>type: </b>http://terminology.hl7.org/CodeSystem/v2-0487 SER Serum Fluoride nuchter</p><p><b>receivedTime: </b>2021-11-04T13:08:58+01:00</p><p><b>collector: </b>Practitioner/8152</p></div>"},"identifier":[{"system":"http://www.macsys.be/hl7/Specimen","value":"002815333043"}],"status":"available","type":{"coding":[{"system":"http://terminology.hl7.org/CodeSystem/v2-0487","code":"SER","display":"Serum"}],"text":"Fluoride nuchter"},"subject":{"reference":"Patient/996321"},"receivedTime":"2021-11-04T13:08:58+01:00","collection":{"collectedDateTime":"2021-11-04T00:00:00+01:00","collector":{"reference":"Practitioner/8152"}}}},{"fullUrl":"Observation/Observation.1.0.0.0","resource":{"resourceType":"Observation","id":"Observation.1.0.0.0","meta":{"profile":["https://www.ehealth.fgov.be/standards/fhir/StructureDefinition/be-observation-laboratory"]},"text":{"status":"generated","div":"<div xmlns=\"http://www.w3.org/1999/xhtml\"><p><b>code: </b>KOOLHYDRATENMETABOLISME</p><p><b>subject: </b>Patient/996321</p><p><b>effective: </b>2021-11-04T00:00:00+01:00</p><p><b>performer: </b>Practitioner/Responsible</p><p><b>member: </b> // Observation/Observation.1.0.0.1 // Observation/Observation.1.0.0.2 // Observation/Observation.1.0.0.3 // </p></div>"},"status":"final","code":{"text":"KOOLHYDRATENMETABOLISME"},"subject":{"reference":"Patient/996321"},"effectiveDateTime":"2021-11-04T00:00:00+01:00","performer":[{"reference":"Practitioner/Responsible"}],"hasMember":[{"reference":"Observation/Observation.1.0.0.1"},{"reference":"Observation/Observation.1.0.0.2"},{"reference":"Observation/Observation.1.0.0.3"}]}},{"fullUrl":"Observation/Observation.1.0.0.1","resource":{"resourceType":"Observation","id":"Observation.1.0.0.1","meta":{"profile":["https://www.ehealth.fgov.be/standards/fhir/StructureDefinition/be-observation-laboratory"]},"text":{"status":"generated","div":"<div xmlns=\"http://www.w3.org/1999/xhtml\"><p><b>code: </b>http://loinc.org 4548-4 Hemoglobine A1c (NGSP)</p><p><b>subject: </b>Patient/996321</p><p><b>effective: </b>2021-11-04T00:00:00+01:00</p><p><b>performer: </b>Practitioner/Responsible</p><p><b>result: </b>5,2000000000 %</p><p><b>specimen: </b>Specimen/001815333043</p><p><b>interpretation: </b></p><p><b>referenceRange: </b> // Low: 4,00000 % // High: 6,00000 % // Streefwaarde diabetes  &lt;= 7,0%// // </p></div>"},"status":"final","code":{"coding":[{"system":"http://loinc.org","code":"4548-4"}],"text":"Hemoglobine A1c (NGSP)"},"subject":{"reference":"Patient/996321"},"effectiveDateTime":"2021-11-04T00:00:00+01:00","issued":"2021-11-04T13:12:10+01:00","performer":[{"reference":"Practitioner/Responsible"}],"valueQuantity":{"value":5.2000000000,"unit":"%","system":"http://unitsofmeasure.org","code":"%"},"specimen":{"reference":"Specimen/001815333043"},"referenceRange":[{"low":{"value":4.00000,"unit":"%","system":"http://unitsofmeasure.org","code":"%"},"high":{"value":6.00000,"unit":"%","system":"http://unitsofmeasure.org","code":"%"},"text":"Streefwaarde diabetes  <= 7,0%//"}]}},{"fullUrl":"Observation/Observation.1.0.0.2","resource":{"resourceType":"Observation","id":"Observation.1.0.0.2","meta":{"profile":["https://www.ehealth.fgov.be/standards/fhir/StructureDefinition/be-observation-laboratory"]},"text":{"status":"generated","div":"<div xmlns=\"http://www.w3.org/1999/xhtml\"><p><b>code: </b>http://loinc.org 59261-8 Hemoglobine A1c (IFCC)</p><p><b>subject: </b>Patient/996321</p><p><b>effective: </b>2021-11-04T00:00:00+01:00</p><p><b>performer: </b>Practitioner/Responsible</p><p><b>result: </b>33,0000000000 mmol/mol</p><p><b>specimen: </b>Specimen/001815333043</p><p><b>interpretation: </b></p><p><b>referenceRange: </b> // Low: 20,00000 mmol/mol // High: 42,00000 mmol/mol // Streefwaarde diabetes  &lt;= 53 mmol/mol// // </p></div>"},"status":"final","code":{"coding":[{"system":"http://loinc.org","code":"59261-8"}],"text":"Hemoglobine A1c (IFCC)"},"subject":{"reference":"Patient/996321"},"effectiveDateTime":"2021-11-04T00:00:00+01:00","issued":"2021-11-04T13:12:15+01:00","performer":[{"reference":"Practitioner/Responsible"}],"valueQuantity":{"value":33.0000000000,"unit":"mmol/mol","system":"http://unitsofmeasure.org","code":"mmol/mol"},"specimen":{"reference":"Specimen/001815333043"},"referenceRange":[{"low":{"value":20.00000,"unit":"mmol/mol","system":"http://unitsofmeasure.org","code":"mmol/mol"},"high":{"value":42.00000,"unit":"mmol/mol","system":"http://unitsofmeasure.org","code":"mmol/mol"},"text":"Streefwaarde diabetes  <= 53 mmol/mol//"}]}},{"fullUrl":"Observation/Observation.1.0.0.3","resource":{"resourceType":"Observation","id":"Observation.1.0.0.3","meta":{"profile":["https://www.ehealth.fgov.be/standards/fhir/StructureDefinition/be-observation-laboratory"]},"text":{"status":"generated","div":"<div xmlns=\"http://www.w3.org/1999/xhtml\"><p><b>code: </b>http://loinc.org 53049-3 Glucose nuchter</p><p><b>subject: </b>Patient/996321</p><p><b>effective: </b>2021-11-04T00:00:00+01:00</p><p><b>performer: </b>Practitioner/Responsible</p><p><b>result: </b>70,0000000000 mg/dL</p><p><b>specimen: </b>Specimen/002815333043</p><p><b>interpretation: </b></p><p><b>referenceRange: </b> // Low: 70,00000 mg/dL // High: 99,00000 mg/dL // </p></div>"},"status":"final","code":{"coding":[{"system":"http://loinc.org","code":"53049-3"}],"text":"Glucose nuchter"},"subject":{"reference":"Patient/996321"},"effectiveDateTime":"2021-11-04T00:00:00+01:00","issued":"2021-11-04T13:11:32+01:00","performer":[{"reference":"Practitioner/Responsible"}],"valueQuantity":{"value":70.0000000000,"unit":"mg/dL","system":"http://unitsofmeasure.org","code":"mg/dL"},"specimen":{"reference":"Specimen/002815333043"},"referenceRange":[{"low":{"value":70.00000,"unit":"mg/dL","system":"http://unitsofmeasure.org","code":"mg/dL"},"high":{"value":99.00000,"unit":"mg/dL","system":"http://unitsofmeasure.org","code":"mg/dL"}}]}},{"fullUrl":"DiagnosticReport/815333043","resource":{"resourceType":"DiagnosticReport","id":"815333043","meta":{"versionId":"9","profile":["https://www.ehealth.fgov.be/standards/fhir/StructureDefinition/be-laboratory-report"]},"language":"nl","text":{"status":"generated","div":"<div xmlns=\"http://www.w3.org/1999/xhtml\" xml:lang=\"nl\" lang=\"nl\"><p><b>id: </b>815333043</p><p><b>basedOn: </b>ServiceRequest/815333043</p><p><b>status: </b>final</p><p><b>category: </b>http://terminology.hl7.org/CodeSystem/v2-0074 LAB Laboratory</p><p><b>code: </b>http://loinc.org 26436-6 Laboratory studies (set)</p><p><b>subject: </b>Patient/996321</p><p><b>effective: </b>2021-11-04T00:00:00+01:00</p><p><b>issued: </b>2021-11-24T09:00:03+01:00</p><p><b>performer: </b>Organization/81365677998</p><p><b>resultsInterpreter: </b>Practitioner/Responsible</p><p><b>specimen: </b> // Specimen/001815333043 // Specimen/002815333043 // </p><p><b>result: </b> // Observation/Observation.1.0.0.0 // </p></div>"},"identifier":[{"system":"http://www.macsys.be/hl7/DiagnosticReport","value":"815333043"}],"basedOn":[{"reference":"ServiceRequest/815333043"}],"status":"final","category":[{"coding":[{"system":"http://terminology.hl7.org/CodeSystem/v2-0074","code":"LAB","display":"Laboratory"}]}],"code":{"coding":[{"system":"http://loinc.org","code":"26436-6","display":"Laboratory studies (set)"}]},"subject":{"reference":"Patient/996321"},"effectiveDateTime":"2021-11-04T00:00:00+01:00","issued":"2021-11-24T09:00:03+01:00","performer":[{"reference":"Organization/81365677998"}],"resultsInterpreter":[{"reference":"Practitioner/Responsible"}],"specimen":[{"reference":"Specimen/001815333043"},{"reference":"Specimen/002815333043"}],"result":[{"reference":"Observation/Observation.1.0.0.0"}]}},{"fullUrl":"Organization/81365677998","resource":{"resourceType":"Organization","id":"81365677998","meta":{"profile":["https://www.ehealth.fgov.be/standards/fhir/StructureDefinition/be-organization"]},"text":{"status":"generated","div":"<div xmlns=\"http://www.w3.org/1999/xhtml\"><p><b>identifier: </b>81365677998</p><p><b>name: </b>CENTRUM VOOR MEDISCHE ANALYSE</p><p><b>contact: </b>014/28.50.00</p><p><b>address: </b>Oud-Strijderslaan 199 2200 Herentals BE</p></div>"},"identifier":[{"use":"official","type":{"coding":[{"system":"http://terminology.hl7.org/CodeSystem/v2-0203","code":"MD","display":"Medical License number"}]},"system":"https://www.ehealth.fgov.be/standards/fhir/NamingSystem/nihdi","value":"81365677998"}],"active":true,"type":[{"coding":[{"system":"https://www.ehealth.fgov.be/standards/fhir/CodeSystem/cd-hcparty","code":"orglaboratory"}]}],"name":"CENTRUM VOOR MEDISCHE ANALYSE","telecom":[{"system":"phone","value":"014/28.50.00","use":"work"},{"system":"fax","value":"014/22.56.08","use":"work"},{"system":"email","value":"info@cma.be","use":"work"},{"system":"url","value":"http://www.cma.be","use":"work"}],"address":[{"use":"work","type":"both","line":["Oud-Strijderslaan 199"],"city":"Herentals","postalCode":"2200","country":"BE"}]}},{"fullUrl":"Practitioner/8152","resource":{"resourceType":"Practitioner","id":"8152","meta":{"profile":["https://www.ehealth.fgov.be/standards/fhir/StructureDefinition/be-practitioner"]},"text":{"status":"generated","div":"<div xmlns=\"http://www.w3.org/1999/xhtml\"><p><b>identifier: </b>11849242860</p><p><b>name: </b>Waegemans Stefan</p><p><b>contact: </b>stefan.waegemans@cma.be</p><p><b>address: </b>Willekensmolenstraat 88/2 3500 Hasselt BE</p></div>"},"identifier":[{"use":"official","system":"https://www.ehealth.fgov.be/standards/fhir/NamingSystem/nihdi","value":"11849242860"}],"name":[{"use":"official","family":"Waegemans","given":["Stefan"],"prefix":["Dr."]}],"telecom":[{"system":"email","value":"stefan.waegemans@cma.be","use":"work"},{"system":"fax","value":"(+32)11/243291","use":"work"},{"system":"phone","value":"(+32)11/225288","use":"work"}],"address":[{"use":"work","type":"both","line":["Willekensmolenstraat 88/2"],"city":"Hasselt","postalCode":"3500","country":"BE"}],"gender":"unknown"}},{"fullUrl":"Practitioner/Responsible","resource":{"resourceType":"Practitioner","id":"Responsible","meta":{"profile":["https://www.ehealth.fgov.be/standards/fhir/StructureDefinition/be-practitioner"]},"text":{"status":"generated","div":"<div xmlns=\"http://www.w3.org/1999/xhtml\"><p><b>identifier: </b>68071432800</p><p><b>name: </b>Engelen Frans</p><p><b>contact: </b>014/28.50.00</p><p><b>address: </b>Oud-Strijderslaan 199 2200 Herentals BE</p></div>"},"identifier":[{"use":"official","system":"https://www.ehealth.fgov.be/standards/fhir/NamingSystem/nihdi","value":"68071432800"}],"name":[{"use":"official","family":"Engelen","given":["Frans"]}],"telecom":[{"system":"phone","value":"014/28.50.00","use":"work"}],"address":[{"use":"work","type":"both","line":["Oud-Strijderslaan 199"],"city":"Herentals","postalCode":"2200","country":"BE"}],"gender":"unknown"}},{"fullUrl":"Patient/996321","resource":{"resourceType":"Patient","id":"996321","meta":{"profile":["https://www.ehealth.fgov.be/standards/fhir/StructureDefinition/be-patient"]},"text":{"status":"generated","div":"<div xmlns=\"http://www.w3.org/1999/xhtml\"><p><b>identifier: </b>90120417431</p><p><b>name: </b>Adriaensen Lotte</p><p><b>gender: </b>female</p><p><b>birthDate: </b>1990-12-04</p><p><b>address: </b>Korte Veldstraat 25 2300 Turnhout BE</p><p><b>contact: </b>0472/408887</p></div>"},"identifier":[{"use":"official","system":"https://www.ehealth.fgov.be/standards/fhir/NamingSystem/ssin","value":"90120417431"}],"active":true,"name":[{"use":"official","family":"Adriaensen","given":["Lotte"]}],"telecom":[{"system":"phone","value":"0472/408887","use":"home"},{"system":"email","value":"ADRIAENSEN.LOTTE@GMAIL.COM","use":"home"}],"address":[{"use":"home","type":"both","line":["Korte Veldstraat 25"],"city":"Turnhout","postalCode":"2300","country":"BE"}],"gender":"female","birthDate":"1990-12-04"}},{"fullUrl":"ServiceRequest/815333043","resource":{"resourceType":"ServiceRequest","id":"815333043","text":{"status":"generated","div":"<div xmlns=\"http://www.w3.org/1999/xhtml\"><p><b>id: </b>815333043</p><p><b>intent: </b>order</p><p><b>status: </b>completed</p><p><b>category: </b>http://snomed.info/sct 108252007 Laboratory procedure</p><p><b>subject: </b>Patient/996321</p><p><b>requester: </b>Practitioner/8152</p><p><b>authoredOn: </b>2021-11-04T13:08:00+01:00</p></div>"},"identifier":[{"system":"http://www.macsys.be/hl7/ServiceRequest","value":"815333043"}],"status":"completed","intent":"order","category":[{"coding":[{"system":"http://snomed.info/sct","code":"108252007","display":"Laboratory procedure"}]}],"subject":{"reference":"Patient/996321"},"priority":"routine","authoredOn":"2021-11-04T13:08:00+01:00","requester":{"reference":"Practitioner/8152"}}}]}