{"resourceType":"Bundle","type":"document","timestamp":"2021-11-24T09:03:18Z","identifier":{"system":"https://www.ehealth.fgov.be/hl7/bundle","value":"81365677998.815333045.12"},"entry":[{"fullUrl":"Composition/815333045","resource":{"resourceType":"Composition","id":"815333045","meta":{"profile":["https://www.ehealth.fgov.be/standards/fhir/StructureDefinition/be-laboratory-report-composition"]},"text":{"status":"generated","div":"<div xmlns=\"http://www.w3.org/1999/xhtml\"><p><b>id: </b>815333045</p><p><b>status: </b>final</p><p><b>type: </b>http://loinc.org 11502-2 Laboratory report</p><p><b>date: </b>2021-11-24T09:03:18+01:00</p><p><b>author: </b>Practitioner/Responsible</p><p><b>title: </b>Laboratory Report</p></div>"},"identifier":{"system":"http://www.macsys.be/hl7/Composition","value":"815333045"},"status":"final","type":{"coding":[{"system":"http://loinc.org","code":"11502-2"}],"text":"Laboratory report"},"subject":{"reference":"Patient/5473807"},"date":"2021-11-24T09:03:18+01:00","author":[{"reference":"Practitioner/Responsible"}],"title":"Laboratory Report","section":[{"entry":[{"reference":"DiagnosticReport/815333045"}]}]}},{"fullUrl":"Specimen/001815333045","resource":{"resourceType":"Specimen","id":"001815333045","meta":{"profile":["https://www.ehealth.fgov.be/standards/fhir/StructureDefinition/be-specimen-laboratory"]},"text":{"status":"generated","div":"<div xmlns=\"http://www.w3.org/1999/xhtml\"><p><b>id: </b>001815333045</p><p><b>status: </b>available</p><p><b>type: </b>http://terminology.hl7.org/CodeSystem/v2-0487 SER Serum Serum</p><p><b>receivedTime: </b>2021-11-04T13:20:48+01:00</p><p><b>collector: </b>Practitioner/8152</p></div>"},"identifier":[{"system":"http://www.macsys.be/hl7/Specimen","value":"001815333045"}],"status":"available","type":{"coding":[{"system":"http://terminology.hl7.org/CodeSystem/v2-0487","code":"SER","display":"Serum"}],"text":"Serum"},"subject":{"reference":"Patient/5473807"},"receivedTime":"2021-11-04T13:20:48+01:00","collection":{"collectedDateTime":"2021-11-04T00:00:00+01:00","collector":{"reference":"Practitioner/8152"}}}},{"fullUrl":"Observation/Observation.1.0.0.0","resource":{"resourceType":"Observation","id":"Observation.1.0.0.0","meta":{"profile":["https://www.ehealth.fgov.be/standards/fhir/StructureDefinition/be-observation-laboratory"]},"text":{"status":"generated","div":"<div xmlns=\"http://www.w3.org/1999/xhtml\"><p><b>code: </b>SEROLOGIE</p><p><b>subject: </b>Patient/5473807</p><p><b>effective: </b>2021-11-04T00:00:00+01:00</p><p><b>performer: </b>Practitioner/Responsible</p><p><b>member: </b> // Observation/Observation.1.1.0.0 // </p></div>"},"status":"final","code":{"text":"SEROLOGIE"},"subject":{"reference":"Patient/5473807"},"effectiveDateTime":"2021-11-04T00:00:00+01:00","performer":[{"reference":"Practitioner/Responsible"}],"hasMember":[{"reference":"Observation/Observation.1.1.0.0"}]}},{"fullUrl":"Observation/Observation.1.1.0.0","resource":{"resourceType":"Observation","id":"Observation.1.1.0.0","meta":{"profile":["https://www.ehealth.fgov.be/standards/fhir/StructureDefinition/be-observation-laboratory"]},"text":{"status":"generated","div":"<div xmlns=\"http://www.w3.org/1999/xhtml\"><p><b>code: </b>Viraal</p><p><b>subject: </b>Patient/5473807</p><p><b>effective: </b>2021-11-04T00:00:00+01:00</p><p><b>performer: </b>Practitioner/Responsible</p><p><b>member: </b> // Observation/Observation.1.1.0.1 // Observation/Observation.1.1.0.2 // Observation/Observation.1.1.0.3 // Observation/Observation.1.1.0.4 // Observation/Observation.1.1.0.5 // </p></div>"},"status":"final","code":{"text":"Viraal"},"subject":{"reference":"Patient/5473807"},"effectiveDateTime":"2021-11-04T00:00:00+01:00","performer":[{"reference":"Practitioner/Responsible"}],"hasMember":[{"reference":"Observation/Observation.1.1.0.1"},{"reference":"Observation/Observation.1.1.0.2"},{"reference":"Observation/Observation.1.1.0.3"},{"reference":"Observation/Observation.1.1.0.4"},{"reference":"Observation/Observation.1.1.0.5"}]}},{"fullUrl":"Observation/Observation.1.1.0.1","resource":{"resourceType":"Observation","id":"Observation.1.1.0.1","meta":{"profile":["https://www.ehealth.fgov.be/standards/fhir/StructureDefinition/be-observation-laboratory"]},"text":{"status":"generated","div":"<div xmlns=\"http://www.w3.org/1999/xhtml\"><p><b>code: </b>http://loinc.org 5124-3 CMV IgG</p><p><b>subject: </b>Patient/5473807</p><p><b>effective: </b>2021-11-04T00:00:00+01:00</p><p><b>performer: </b>Practitioner/Responsible</p><p><b>result: </b>Positief</p><p><b>specimen: </b>Specimen/001815333045</p><p><b>interpretation: </b></p><p><b>note: </b>24 kU/L (Grijze zone: 0,5 - &lt;1,0)</p></div>"},"status":"final","code":{"coding":[{"system":"http://loinc.org","code":"5124-3"}],"text":"CMV IgG"},"subject":{"reference":"Patient/5473807"},"effectiveDateTime":"2021-11-04T00:00:00+01:00","issued":"2021-11-04T13:26:21+01:00","performer":[{"reference":"Practitioner/Responsible"}],"valueString":"Positief","note":[{"text":"24 kU/L (Grijze zone: 0,5 - <1,0)"}],"specimen":{"reference":"Specimen/001815333045"}}},{"fullUrl":"Observation/Observation.1.1.0.2","resource":{"resourceType":"Observation","id":"Observation.1.1.0.2","meta":{"profile":["https://www.ehealth.fgov.be/standards/fhir/StructureDefinition/be-observation-laboratory"]},"text":{"status":"generated","div":"<div xmlns=\"http://www.w3.org/1999/xhtml\"><p><b>code: </b>http://loinc.org 22312-3 Hep.A totaal (IgM+IgG)</p><p><b>subject: </b>Patient/5473807</p><p><b>effective: </b>2021-11-04T00:00:00+01:00</p><p><b>performer: </b>Practitioner/Responsible</p><p><b>result: </b>Positief</p><p><b>specimen: </b>Specimen/001815333045</p><p><b>interpretation: </b></p><p><b>note: </b>Index: 0,02 (Grijze zone: &gt;0,90 - 1,10)</p></div>"},"status":"final","code":{"coding":[{"system":"http://loinc.org","code":"22312-3"}],"text":"Hep.A totaal (IgM+IgG)"},"subject":{"reference":"Patient/5473807"},"effectiveDateTime":"2021-11-04T00:00:00+01:00","issued":"2021-11-04T13:24:44+01:00","performer":[{"reference":"Practitioner/Responsible"}],"valueString":"Positief","note":[{"text":"Index: 0,02 (Grijze zone: >0,90 - 1,10)"}],"specimen":{"reference":"Specimen/001815333045"}}},{"fullUrl":"Observation/Observation.1.1.0.3","resource":{"resourceType":"Observation","id":"Observation.1.1.0.3","meta":{"profile":["https://www.ehealth.fgov.be/standards/fhir/StructureDefinition/be-observation-laboratory"]},"text":{"status":"generated","div":"<div xmlns=\"http://www.w3.org/1999/xhtml\"><p><b>code: </b>http://loinc.org 58452-4 Hep. Bs Ag</p><p><b>subject: </b>Patient/5473807</p><p><b>effective: </b>2021-11-04T00:00:00+01:00</p><p><b>performer: </b>Practitioner/Responsible</p><p><b>result: </b>Positief</p><p><b>specimen: </b>Specimen/001815333045</p><p><b>interpretation: </b>H</p><p><b>note: </b>Index: 3156 (Grijze zone: 0,90 - &lt;1,00)</p><p><b>referenceRange: </b> // &gt; // </p></div>"},"status":"final","code":{"coding":[{"system":"http://loinc.org","code":"58452-4"}],"text":"Hep. Bs Ag"},"subject":{"reference":"Patient/5473807"},"effectiveDateTime":"2021-11-04T00:00:00+01:00","issued":"2021-11-04T13:27:46+01:00","performer":[{"reference":"Practitioner/Responsible"}],"valueString":"Positief","interpretation":[{"coding":[{"system":"http://terminology.hl7.org/CodeSystem/v3-ObservationInterpretation","code":"H"}]}],"note":[{"text":"Index: 3156 (Grijze zone: 0,90 - <1,00)"}],"specimen":{"reference":"Specimen/001815333045"},"referenceRange":[{"text":">"}]}},{"fullUrl":"Observation/Observation.1.1.0.4","resource":{"resourceType":"Observation","id":"Observation.1.1.0.4","meta":{"profile":["https://www.ehealth.fgov.be/standards/fhir/StructureDefinition/be-observation-laboratory"]},"text":{"status":"generated","div":"<div xmlns=\"http://www.w3.org/1999/xhtml\"><p><b>code: </b>http://loinc.org 16935-9 Hep. Bs AL</p><p><b>subject: </b>Patient/5473807</p><p><b>effective: </b>2021-11-04T00:00:00+01:00</p><p><b>performer: </b>Practitioner/Responsible</p><p><b>result: </b>64,0000000000 [IU]/L</p><p><b>specimen: </b>Specimen/001815333045</p><p><b>interpretation: </b></p><p><b>referenceRange: </b> // Immuniteit vanaf 10 IU/L // </p></div>"},"status":"final","code":{"coding":[{"system":"http://loinc.org","code":"16935-9"}],"text":"Hep. Bs AL"},"subject":{"reference":"Patient/5473807"},"effectiveDateTime":"2021-11-04T00:00:00+01:00","issued":"2021-11-04T13:23:33+01:00","performer":[{"reference":"Practitioner/Responsible"}],"valueQuantity":{"value":64.0000000000,"unit":"[IU]/L","system":"http://unitsofmeasure.org","code":"[IU]/L"},"specimen":{"reference":"Specimen/001815333045"},"referenceRange":[{"text":"Immuniteit vanaf 10 IU/L"}]}},{"fullUrl":"Observation/Observation.1.1.0.5","resource":{"resourceType":"Observation","id":"Observation.1.1.0.5","meta":{"profile":["https://www.ehealth.fgov.be/standards/fhir/StructureDefinition/be-observation-laboratory"]},"text":{"status":"generated","div":"<div xmlns=\"http://www.w3.org/1999/xhtml\"><p><b>code: </b>http://loinc.org 16128-1 Hep. C AL</p><p><b>subject: </b>Patient/5473807</p><p><b>effective: </b>2021-11-04T00:00:00+01:00</p><p><b>performer: </b>Practitioner/Responsible</p><p><b>result: </b>Negatief</p><p><b>specimen: </b>Specimen/001815333045</p><p><b>interpretation: </b></p><p><b>referenceRange: </b> // &gt; // </p></div>"},"status":"final","code":{"coding":[{"system":"http://loinc.org","code":"16128-1"}],"text":"Hep. C AL"},"subject":{"reference":"Patient/5473807"},"effectiveDateTime":"2021-11-04T00:00:00+01:00","issued":"2021-11-04T13:23:09+01:00","performer":[{"reference":"Practitioner/Responsible"}],"valueString":"Negatief","specimen":{"reference":"Specimen/001815333045"},"referenceRange":[{"text":">"}]}},{"fullUrl":"DiagnosticReport/815333045","resource":{"resourceType":"DiagnosticReport","id":"815333045","meta":{"versionId":"12","profile":["https://www.ehealth.fgov.be/standards/fhir/StructureDefinition/be-laboratory-report"]},"language":"nl","text":{"status":"generated","div":"<div xmlns=\"http://www.w3.org/1999/xhtml\" xml:lang=\"nl\" lang=\"nl\"><p><b>id: </b>815333045</p><p><b>basedOn: </b>ServiceRequest/815333045</p><p><b>status: </b>final</p><p><b>category: </b>http://terminology.hl7.org/CodeSystem/v2-0074 LAB Laboratory</p><p><b>code: </b>http://loinc.org 26436-6 Laboratory studies (set)</p><p><b>subject: </b>Patient/5473807</p><p><b>effective: </b>2021-11-04T00:00:00+01:00</p><p><b>issued: </b>2021-11-24T09:03:18+01:00</p><p><b>performer: </b>Organization/81365677998</p><p><b>resultsInterpreter: </b>Practitioner/Responsible</p><p><b>specimen: </b> // Specimen/001815333045 // </p><p><b>result: </b> // Observation/Observation.1.0.0.0 // </p></div>"},"identifier":[{"system":"http://www.macsys.be/hl7/DiagnosticReport","value":"815333045"}],"basedOn":[{"reference":"ServiceRequest/815333045"}],"status":"final","category":[{"coding":[{"system":"http://terminology.hl7.org/CodeSystem/v2-0074","code":"LAB","display":"Laboratory"}]}],"code":{"coding":[{"system":"http://loinc.org","code":"26436-6","display":"Laboratory studies (set)"}]},"subject":{"reference":"Patient/5473807"},"effectiveDateTime":"2021-11-04T00:00:00+01:00","issued":"2021-11-24T09:03:18+01:00","performer":[{"reference":"Organization/81365677998"}],"resultsInterpreter":[{"reference":"Practitioner/Responsible"}],"specimen":[{"reference":"Specimen/001815333045"}],"result":[{"reference":"Observation/Observation.1.0.0.0"}]}},{"fullUrl":"Organization/81365677998","resource":{"resourceType":"Organization","id":"81365677998","meta":{"profile":["https://www.ehealth.fgov.be/standards/fhir/StructureDefinition/be-organization"]},"text":{"status":"generated","div":"<div xmlns=\"http://www.w3.org/1999/xhtml\"><p><b>identifier: </b>81365677998</p><p><b>name: </b>CENTRUM VOOR MEDISCHE ANALYSE</p><p><b>contact: </b>014/28.50.00</p><p><b>address: </b>Oud-Strijderslaan 199 2200 Herentals BE</p></div>"},"identifier":[{"use":"official","type":{"coding":[{"system":"http://terminology.hl7.org/CodeSystem/v2-0203","code":"MD","display":"Medical License number"}]},"system":"https://www.ehealth.fgov.be/standards/fhir/NamingSystem/nihdi","value":"81365677998"}],"active":true,"type":[{"coding":[{"system":"https://www.ehealth.fgov.be/standards/fhir/CodeSystem/cd-hcparty","code":"orglaboratory"}]}],"name":"CENTRUM VOOR MEDISCHE ANALYSE","telecom":[{"system":"phone","value":"014/28.50.00","use":"work"},{"system":"fax","value":"014/22.56.08","use":"work"},{"system":"email","value":"info@cma.be","use":"work"},{"system":"url","value":"http://www.cma.be","use":"work"}],"address":[{"use":"work","type":"both","line":["Oud-Strijderslaan 199"],"city":"Herentals","postalCode":"2200","country":"BE"}]}},{"fullUrl":"Practitioner/8152","resource":{"resourceType":"Practitioner","id":"8152","meta":{"profile":["https://www.ehealth.fgov.be/standards/fhir/StructureDefinition/be-practitioner"]},"text":{"status":"generated","div":"<div xmlns=\"http://www.w3.org/1999/xhtml\"><p><b>identifier: </b>11849242860</p><p><b>name: </b>Waegemans Stefan</p><p><b>contact: </b>stefan.waegemans@cma.be</p><p><b>address: </b>Willekensmolenstraat 88/2 3500 Hasselt BE</p></div>"},"identifier":[{"use":"official","system":"https://www.ehealth.fgov.be/standards/fhir/NamingSystem/nihdi","value":"11849242860"}],"name":[{"use":"official","family":"Waegemans","given":["Stefan"],"prefix":["Dr."]}],"telecom":[{"system":"email","value":"stefan.waegemans@cma.be","use":"work"},{"system":"fax","value":"(+32)11/243291","use":"work"},{"system":"phone","value":"(+32)11/225288","use":"work"}],"address":[{"use":"work","type":"both","line":["Willekensmolenstraat 88/2"],"city":"Hasselt","postalCode":"3500","country":"BE"}],"gender":"unknown"}},{"fullUrl":"Practitioner/Responsible","resource":{"resourceType":"Practitioner","id":"Responsible","meta":{"profile":["https://www.ehealth.fgov.be/standards/fhir/StructureDefinition/be-practitioner"]},"text":{"status":"generated","div":"<div xmlns=\"http://www.w3.org/1999/xhtml\"><p><b>identifier: </b>68071432800</p><p><b>name: </b>Engelen Frans</p><p><b>contact: </b>014/28.50.00</p><p><b>address: </b>Oud-Strijderslaan 199 2200 Herentals BE</p></div>"},"identifier":[{"use":"official","system":"https://www.ehealth.fgov.be/standards/fhir/NamingSystem/nihdi","value":"68071432800"}],"name":[{"use":"official","family":"Engelen","given":["Frans"]}],"telecom":[{"system":"phone","value":"014/28.50.00","use":"work"}],"address":[{"use":"work","type":"both","line":["Oud-Strijderslaan 199"],"city":"Herentals","postalCode":"2200","country":"BE"}],"gender":"unknown"}},{"fullUrl":"Patient/5473807","resource":{"resourceType":"Patient","id":"5473807","meta":{"profile":["https://www.ehealth.fgov.be/standards/fhir/StructureDefinition/be-patient"]},"text":{"status":"generated","div":"<div xmlns=\"http://www.w3.org/1999/xhtml\"><p><b>identifier: </b>66042620739</p><p><b>name: </b>Tollenaere Tom</p><p><b>gender: </b>male</p><p><b>birthDate: </b>1966-04-26</p><p><b>address: </b>Beukenlaan 63/A 3110 Rotselaar BE</p><p><b>contact: </b>0497054020</p></div>"},"identifier":[{"use":"official","system":"https://www.ehealth.fgov.be/standards/fhir/NamingSystem/ssin","value":"66042620739"}],"active":true,"name":[{"use":"official","family":"Tollenaere","given":["Tom"]}],"telecom":[{"system":"phone","value":"0497054020","use":"home"},{"system":"email","value":"TOM.TOLLENAERE@MACSYS.BE","use":"home"}],"address":[{"use":"home","type":"both","line":["Beukenlaan 63/A"],"city":"Rotselaar","postalCode":"3110","country":"BE"}],"gender":"male","birthDate":"1966-04-26"}},{"fullUrl":"ServiceRequest/815333045","resource":{"resourceType":"ServiceRequest","id":"815333045","text":{"status":"generated","div":"<div xmlns=\"http://www.w3.org/1999/xhtml\"><p><b>id: </b>815333045</p><p><b>intent: </b>order</p><p><b>status: </b>completed</p><p><b>category: </b>http://snomed.info/sct 108252007 Laboratory procedure</p><p><b>subject: </b>Patient/5473807</p><p><b>requester: </b>Practitioner/8152</p><p><b>authoredOn: </b>2021-11-04T13:20:00+01:00</p></div>"},"identifier":[{"system":"http://www.macsys.be/hl7/ServiceRequest","value":"815333045"}],"status":"completed","intent":"order","category":[{"coding":[{"system":"http://snomed.info/sct","code":"108252007","display":"Laboratory procedure"}]}],"subject":{"reference":"Patient/5473807"},"priority":"routine","authoredOn":"2021-11-04T13:20:00+01:00","requester":{"reference":"Practitioner/8152"}}}]}