{
  "resourceType": "Bundle",
  "type": "document",
  "timestamp": "2021-11-24T09:01:45Z",
  "identifier": {
    "system": "https://www.ehealth.fgov.be/hl7/bundle",
    "value": "81365677998.815333044.25"
  },
  "entry": [
    {
      "fullUrl": "Composition/815333044",
      "resource": {
        "resourceType": "Composition",
        "id": "815333044",
        "meta": {
          "profile": [
            "https://www.ehealth.fgov.be/standards/fhir/StructureDefinition/be-laboratory-report-composition"
          ]
        },
        "text": {
          "status": "generated",
          "div": "<div xmlns=\"http://www.w3.org/1999/xhtml\"><p><b>id: </b>815333044</p><p><b>status: </b>preliminary</p><p><b>type: </b>http://loinc.org 11502-2 Laboratory report</p><p><b>date: </b>2021-11-24T09:01:45+01:00</p><p><b>author: </b>Practitioner/Responsible</p><p><b>title: </b>Laboratory Report</p></div>"
        },
        "identifier": {
          "system": "http://www.macsys.be/hl7/Composition",
          "value": "815333044"
        },
        "status": "preliminary",
        "type": {
          "coding": [
            {
              "system": "http://loinc.org",
              "code": "11502-2"
            }
          ],
          "text": "Laboratory report"
        },
        "subject": {
          "reference": "Patient/6803360"
        },
        "date": "2021-11-24T09:01:45+01:00",
        "author": [
          {
            "reference": "Practitioner/Responsible"
          }
        ],
        "title": "Laboratory Report",
        "section": [
          {
            "entry": [
              {
                "reference": "DiagnosticReport/815333044"
              }
            ]
          }
        ]
      }
    },
    {
      "fullUrl": "Specimen/001815333044",
      "resource": {
        "resourceType": "Specimen",
        "id": "001815333044",
        "meta": {
          "profile": [
            "https://www.ehealth.fgov.be/standards/fhir/StructureDefinition/be-specimen-laboratory"
          ]
        },
        "text": {
          "status": "generated",
          "div": "<div xmlns=\"http://www.w3.org/1999/xhtml\"><p><b>id: </b>001815333044</p><p><b>status: </b>available</p><p><b>type: </b>http://terminology.hl7.org/CodeSystem/v2-0487 SER Serum EDTA-volbloed</p><p><b>receivedTime: </b>2021-11-04T13:15:49+01:00</p><p><b>collector: </b>Practitioner/8152</p></div>"
        },
        "identifier": [
          {
            "system": "http://www.macsys.be/hl7/Specimen",
            "value": "001815333044"
          }
        ],
        "status": "available",
        "type": {
          "coding": [
            {
              "system": "http://terminology.hl7.org/CodeSystem/v2-0487",
              "code": "SER",
              "display": "Serum"
            }
          ],
          "text": "EDTA-volbloed"
        },
        "subject": {
          "reference": "Patient/6803360"
        },
        "receivedTime": "2021-11-04T13:15:49+01:00",
        "collection": {
          "collectedDateTime": "2021-11-04T00:00:00+01:00",
          "collector": {
            "reference": "Practitioner/8152"
          }
        }
      }
    },
    {
      "fullUrl": "Specimen/002815333044",
      "resource": {
        "resourceType": "Specimen",
        "id": "002815333044",
        "meta": {
          "profile": [
            "https://www.ehealth.fgov.be/standards/fhir/StructureDefinition/be-specimen-laboratory"
          ]
        },
        "text": {
          "status": "generated",
          "div": "<div xmlns=\"http://www.w3.org/1999/xhtml\"><p><b>id: </b>002815333044</p><p><b>status: </b>available</p><p><b>type: </b>http://terminology.hl7.org/CodeSystem/v2-0487 SER Serum Serum</p><p><b>receivedTime: </b>2021-11-04T13:15:49+01:00</p><p><b>collector: </b>Practitioner/8152</p></div>"
        },
        "identifier": [
          {
            "system": "http://www.macsys.be/hl7/Specimen",
            "value": "002815333044"
          }
        ],
        "status": "available",
        "type": {
          "coding": [
            {
              "system": "http://terminology.hl7.org/CodeSystem/v2-0487",
              "code": "SER",
              "display": "Serum"
            }
          ],
          "text": "Serum"
        },
        "subject": {
          "reference": "Patient/6803360"
        },
        "receivedTime": "2021-11-04T13:15:49+01:00",
        "collection": {
          "collectedDateTime": "2021-11-04T00:00:00+01:00",
          "collector": {
            "reference": "Practitioner/8152"
          }
        }
      }
    },
    {
      "fullUrl": "Observation/Observation.1.0.0.0",
      "resource": {
        "resourceType": "Observation",
        "id": "Observation.1.0.0.0",
        "meta": {
          "profile": [
            "https://www.ehealth.fgov.be/standards/fhir/StructureDefinition/be-observation-laboratory"
          ]
        },
        "text": {
          "status": "generated",
          "div": "<div xmlns=\"http://www.w3.org/1999/xhtml\"><p><b>code: </b>HEMATOLOGIE</p><p><b>subject: </b>Patient/6803360</p><p><b>effective: </b>2021-11-04T00:00:00+01:00</p><p><b>performer: </b>Practitioner/Responsible</p><p><b>member: </b></p></div>"
        },
        "status": "final",
        "code": {
          "text": "HEMATOLOGIE"
        },
        "subject": {
          "reference": "Patient/6803360"
        },
        "effectiveDateTime": "2021-11-04T00:00:00+01:00",
        "performer": [
          {
            "reference": "Practitioner/Responsible"
          }
        ],
        "hasMember": [
          {
            "reference": "Observation/Observation.1.0.0.1"
          },
          {
            "reference": "Observation/Observation.1.0.0.2"
          },
          {
            "reference": "Observation/Observation.1.0.0.3"
          },
          {
            "reference": "Observation/Observation.1.0.0.4"
          },
          {
            "reference": "Observation/Observation.1.0.0.5"
          },
          {
            "reference": "Observation/Observation.1.0.0.6"
          },
          {
            "reference": "Observation/Observation.1.0.0.7"
          },
          {
            "reference": "Observation/Observation.1.0.0.8"
          },
          {
            "reference": "Observation/Observation.1.1.0.0"
          },
          {
            "reference": "Observation/Observation.1.2.0.0"
          }
        ]
      }
    },
    {
      "fullUrl": "Observation/Observation.1.0.0.1",
      "resource": {
        "resourceType": "Observation",
        "id": "Observation.1.0.0.1",
        "meta": {
          "profile": [
            "https://www.ehealth.fgov.be/standards/fhir/StructureDefinition/be-observation-laboratory"
          ]
        },
        "text": {
          "status": "generated",
          "div": "<div xmlns=\"http://www.w3.org/1999/xhtml\"><p><b>code: </b>http://loinc.org 4537-7 Bezinking na 1 uur</p><p><b>subject: </b>Patient/6803360</p><p><b>effective: </b>2021-11-04T00:00:00+01:00</p><p><b>performer: </b>Practitioner/Responsible</p><p><b>result: </b>10,0000000000 mm</p><p><b>specimen: </b>Specimen/001815333044</p><p><b>interpretation: </b></p><p><b>referenceRange: </b> // High: 25,00000 mm // </p></div>"
        },
        "status": "final",
        "code": {
          "coding": [
            {
              "system": "http://loinc.org",
              "code": "4537-7"
            }
          ],
          "text": "Bezinking na 1 uur"
        },
        "subject": {
          "reference": "Patient/6803360"
        },
        "effectiveDateTime": "2021-11-04T00:00:00+01:00",
        "issued": "2021-11-04T13:16:35+01:00",
        "performer": [
          {
            "reference": "Practitioner/Responsible"
          }
        ],
        "valueQuantity": {
          "value": 10.0000000000,
          "unit": "mm",
          "system": "http://unitsofmeasure.org",
          "code": "mm"
        },
        "specimen": {
          "reference": "Specimen/001815333044"
        },
        "referenceRange": [
          {
            "high": {
              "value": 25.00000,
              "unit": "mm",
              "system": "http://unitsofmeasure.org",
              "code": "mm"
            }
          }
        ]
      }
    },
    {
      "fullUrl": "Observation/Observation.1.0.0.2",
      "resource": {
        "resourceType": "Observation",
        "id": "Observation.1.0.0.2",
        "meta": {
          "profile": [
            "https://www.ehealth.fgov.be/standards/fhir/StructureDefinition/be-observation-laboratory"
          ]
        },
        "text": {
          "status": "generated",
          "div": "<div xmlns=\"http://www.w3.org/1999/xhtml\"><p><b>code: </b>http://loinc.org 789-8 Erytrocyten</p><p><b>subject: </b>Patient/6803360</p><p><b>effective: </b>2021-11-04T00:00:00+01:00</p><p><b>performer: </b>Practitioner/Responsible</p><p><b>result: </b>4,6900000000 10*6/uL</p><p><b>specimen: </b>Specimen/001815333044</p><p><b>interpretation: </b></p><p><b>referenceRange: </b> // Low: 4,35000 10*6/uL // High: 5,61000 10*6/uL // </p></div>"
        },
        "status": "final",
        "code": {
          "coding": [
            {
              "system": "http://loinc.org",
              "code": "789-8"
            }
          ],
          "text": "Erytrocyten"
        },
        "subject": {
          "reference": "Patient/6803360"
        },
        "effectiveDateTime": "2021-11-04T00:00:00+01:00",
        "issued": "2021-11-04T13:16:40+01:00",
        "performer": [
          {
            "reference": "Practitioner/Responsible"
          }
        ],
        "valueQuantity": {
          "value": 4.6900000000,
          "unit": "10*6/uL",
          "system": "http://unitsofmeasure.org",
          "code": "10*6/uL"
        },
        "specimen": {
          "reference": "Specimen/001815333044"
        },
        "referenceRange": [
          {
            "low": {
              "value": 4.35000,
              "unit": "10*6/uL",
              "system": "http://unitsofmeasure.org",
              "code": "10*6/uL"
            },
            "high": {
              "value": 5.61000,
              "unit": "10*6/uL",
              "system": "http://unitsofmeasure.org",
              "code": "10*6/uL"
            }
          }
        ]
      }
    },
    {
      "fullUrl": "Observation/Observation.1.0.0.3",
      "resource": {
        "resourceType": "Observation",
        "id": "Observation.1.0.0.3",
        "meta": {
          "profile": [
            "https://www.ehealth.fgov.be/standards/fhir/StructureDefinition/be-observation-laboratory"
          ]
        },
        "text": {
          "status": "generated",
          "div": "<div xmlns=\"http://www.w3.org/1999/xhtml\"><p><b>code: </b>http://loinc.org 718-7 Hemoglobine</p><p><b>subject: </b>Patient/6803360</p><p><b>effective: </b>2021-11-04T00:00:00+01:00</p><p><b>performer: </b>Practitioner/Responsible</p><p><b>result: </b>14,8000000000 g/dL</p><p><b>specimen: </b>Specimen/001815333044</p><p><b>interpretation: </b></p><p><b>referenceRange: </b> // Low: 13,40000 g/dL // High: 16,50000 g/dL // </p></div>"
        },
        "status": "final",
        "code": {
          "coding": [
            {
              "system": "http://loinc.org",
              "code": "718-7"
            }
          ],
          "text": "Hemoglobine"
        },
        "subject": {
          "reference": "Patient/6803360"
        },
        "effectiveDateTime": "2021-11-04T00:00:00+01:00",
        "issued": "2021-11-04T13:16:46+01:00",
        "performer": [
          {
            "reference": "Practitioner/Responsible"
          }
        ],
        "valueQuantity": {
          "value": 14.8000000000,
          "unit": "g/dL",
          "system": "http://unitsofmeasure.org",
          "code": "g/dL"
        },
        "specimen": {
          "reference": "Specimen/001815333044"
        },
        "referenceRange": [
          {
            "low": {
              "value": 13.40000,
              "unit": "g/dL",
              "system": "http://unitsofmeasure.org",
              "code": "g/dL"
            },
            "high": {
              "value": 16.50000,
              "unit": "g/dL",
              "system": "http://unitsofmeasure.org",
              "code": "g/dL"
            }
          }
        ]
      }
    },
    {
      "fullUrl": "Observation/Observation.1.0.0.4",
      "resource": {
        "resourceType": "Observation",
        "id": "Observation.1.0.0.4",
        "meta": {
          "profile": [
            "https://www.ehealth.fgov.be/standards/fhir/StructureDefinition/be-observation-laboratory"
          ]
        },
        "text": {
          "status": "generated",
          "div": "<div xmlns=\"http://www.w3.org/1999/xhtml\"><p><b>code: </b>http://loinc.org 4544-3 Hematocriet</p><p><b>subject: </b>Patient/6803360</p><p><b>effective: </b>2021-11-04T00:00:00+01:00</p><p><b>performer: </b>Practitioner/Responsible</p><p><b>result: </b>41,0000000000 %</p><p><b>specimen: </b>Specimen/001815333044</p><p><b>interpretation: </b></p><p><b>referenceRange: </b> // Low: 39,70000 % // High: 49,30000 % // </p></div>"
        },
        "status": "final",
        "code": {
          "coding": [
            {
              "system": "http://loinc.org",
              "code": "4544-3"
            }
          ],
          "text": "Hematocriet"
        },
        "subject": {
          "reference": "Patient/6803360"
        },
        "effectiveDateTime": "2021-11-04T00:00:00+01:00",
        "issued": "2021-11-04T13:16:49+01:00",
        "performer": [
          {
            "reference": "Practitioner/Responsible"
          }
        ],
        "valueQuantity": {
          "value": 41.0000000000,
          "unit": "%",
          "system": "http://unitsofmeasure.org",
          "code": "%"
        },
        "specimen": {
          "reference": "Specimen/001815333044"
        },
        "referenceRange": [
          {
            "low": {
              "value": 39.70000,
              "unit": "%",
              "system": "http://unitsofmeasure.org",
              "code": "%"
            },
            "high": {
              "value": 49.30000,
              "unit": "%",
              "system": "http://unitsofmeasure.org",
              "code": "%"
            }
          }
        ]
      }
    },
    {
      "fullUrl": "Observation/Observation.1.0.0.5",
      "resource": {
        "resourceType": "Observation",
        "id": "Observation.1.0.0.5",
        "meta": {
          "profile": [
            "https://www.ehealth.fgov.be/standards/fhir/StructureDefinition/be-observation-laboratory"
          ]
        },
        "text": {
          "status": "generated",
          "div": "<div xmlns=\"http://www.w3.org/1999/xhtml\"><p><b>code: </b>http://loinc.org 787-2 MCV</p><p><b>subject: </b>Patient/6803360</p><p><b>effective: </b>2021-11-04T00:00:00+01:00</p><p><b>performer: </b>Practitioner/Responsible</p><p><b>result: </b>90,0000000000 fL</p><p><b>specimen: </b>Specimen/001815333044</p><p><b>interpretation: </b></p><p><b>referenceRange: </b> // Low: 83,20000 fL // High: 96,00000 fL // </p></div>"
        },
        "status": "final",
        "code": {
          "coding": [
            {
              "system": "http://loinc.org",
              "code": "787-2"
            }
          ],
          "text": "MCV"
        },
        "subject": {
          "reference": "Patient/6803360"
        },
        "effectiveDateTime": "2021-11-04T00:00:00+01:00",
        "issued": "2021-11-04T13:16:54+01:00",
        "performer": [
          {
            "reference": "Practitioner/Responsible"
          }
        ],
        "valueQuantity": {
          "value": 90.0000000000,
          "unit": "fL",
          "system": "http://unitsofmeasure.org",
          "code": "fL"
        },
        "specimen": {
          "reference": "Specimen/001815333044"
        },
        "referenceRange": [
          {
            "low": {
              "value": 83.20000,
              "unit": "fL",
              "system": "http://unitsofmeasure.org",
              "code": "fL"
            },
            "high": {
              "value": 96.00000,
              "unit": "fL",
              "system": "http://unitsofmeasure.org",
              "code": "fL"
            }
          }
        ]
      }
    },
    {
      "fullUrl": "Observation/Observation.1.0.0.6",
      "resource": {
        "resourceType": "Observation",
        "id": "Observation.1.0.0.6",
        "meta": {
          "profile": [
            "https://www.ehealth.fgov.be/standards/fhir/StructureDefinition/be-observation-laboratory"
          ]
        },
        "text": {
          "status": "generated",
          "div": "<div xmlns=\"http://www.w3.org/1999/xhtml\"><p><b>code: </b>http://loinc.org 785-6 MCH</p><p><b>subject: </b>Patient/6803360</p><p><b>effective: </b>2021-11-04T00:00:00+01:00</p><p><b>performer: </b>Practitioner/Responsible</p><p><b>result: </b>31,6000000000 pg</p><p><b>specimen: </b>Specimen/001815333044</p><p><b>interpretation: </b></p><p><b>referenceRange: </b> // Low: 27,80000 pg // High: 32,50000 pg // </p></div>"
        },
        "status": "final",
        "code": {
          "coding": [
            {
              "system": "http://loinc.org",
              "code": "785-6"
            }
          ],
          "text": "MCH"
        },
        "subject": {
          "reference": "Patient/6803360"
        },
        "effectiveDateTime": "2021-11-04T00:00:00+01:00",
        "issued": "2021-11-04T13:16:59+01:00",
        "performer": [
          {
            "reference": "Practitioner/Responsible"
          }
        ],
        "valueQuantity": {
          "value": 31.6000000000,
          "unit": "pg",
          "system": "http://unitsofmeasure.org",
          "code": "pg"
        },
        "specimen": {
          "reference": "Specimen/001815333044"
        },
        "referenceRange": [
          {
            "low": {
              "value": 27.80000,
              "unit": "pg",
              "system": "http://unitsofmeasure.org",
              "code": "pg"
            },
            "high": {
              "value": 32.50000,
              "unit": "pg",
              "system": "http://unitsofmeasure.org",
              "code": "pg"
            }
          }
        ]
      }
    },
    {
      "fullUrl": "Observation/Observation.1.0.0.7",
      "resource": {
        "resourceType": "Observation",
        "id": "Observation.1.0.0.7",
        "meta": {
          "profile": [
            "https://www.ehealth.fgov.be/standards/fhir/StructureDefinition/be-observation-laboratory"
          ]
        },
        "text": {
          "status": "generated",
          "div": "<div xmlns=\"http://www.w3.org/1999/xhtml\"><p><b>code: </b>http://loinc.org 786-4 MCHC</p><p><b>subject: </b>Patient/6803360</p><p><b>effective: </b>2021-11-04T00:00:00+01:00</p><p><b>performer: </b>Practitioner/Responsible</p><p><b>result: </b>34,9000000000 g/dL</p><p><b>specimen: </b>Specimen/001815333044</p><p><b>interpretation: </b></p><p><b>referenceRange: </b> // Low: 32,30000 g/dL // High: 35,70000 g/dL // </p></div>"
        },
        "status": "final",
        "code": {
          "coding": [
            {
              "system": "http://loinc.org",
              "code": "786-4"
            }
          ],
          "text": "MCHC"
        },
        "subject": {
          "reference": "Patient/6803360"
        },
        "effectiveDateTime": "2021-11-04T00:00:00+01:00",
        "issued": "2021-11-04T13:17:06+01:00",
        "performer": [
          {
            "reference": "Practitioner/Responsible"
          }
        ],
        "valueQuantity": {
          "value": 34.9000000000,
          "unit": "g/dL",
          "system": "http://unitsofmeasure.org",
          "code": "g/dL"
        },
        "specimen": {
          "reference": "Specimen/001815333044"
        },
        "referenceRange": [
          {
            "low": {
              "value": 32.30000,
              "unit": "g/dL",
              "system": "http://unitsofmeasure.org",
              "code": "g/dL"
            },
            "high": {
              "value": 35.70000,
              "unit": "g/dL",
              "system": "http://unitsofmeasure.org",
              "code": "g/dL"
            }
          }
        ]
      }
    },
    {
      "fullUrl": "Observation/Observation.1.0.0.8",
      "resource": {
        "resourceType": "Observation",
        "id": "Observation.1.0.0.8",
        "meta": {
          "profile": [
            "https://www.ehealth.fgov.be/standards/fhir/StructureDefinition/be-observation-laboratory"
          ]
        },
        "text": {
          "status": "generated",
          "div": "<div xmlns=\"http://www.w3.org/1999/xhtml\"><p><b>code: </b>http://loinc.org 6690-2 Leukocyten</p><p><b>subject: </b>Patient/6803360</p><p><b>effective: </b>2021-11-04T00:00:00+01:00</p><p><b>performer: </b>Practitioner/Responsible</p><p><b>result: </b>3810,0000000000 /uL</p><p><b>specimen: </b>Specimen/001815333044</p><p><b>interpretation: </b></p><p><b>referenceRange: </b> // Low: 3720,00000 /uL // High: 10540,00000 /uL // </p></div>"
        },
        "status": "final",
        "code": {
          "coding": [
            {
              "system": "http://loinc.org",
              "code": "6690-2"
            }
          ],
          "text": "Leukocyten"
        },
        "subject": {
          "reference": "Patient/6803360"
        },
        "effectiveDateTime": "2021-11-04T00:00:00+01:00",
        "issued": "2021-11-04T13:17:11+01:00",
        "performer": [
          {
            "reference": "Practitioner/Responsible"
          }
        ],
        "valueQuantity": {
          "value": 3810.0000000000,
          "unit": "/uL",
          "system": "http://unitsofmeasure.org",
          "code": "/uL"
        },
        "specimen": {
          "reference": "Specimen/001815333044"
        },
        "referenceRange": [
          {
            "low": {
              "value": 3720.00000,
              "unit": "/uL",
              "system": "http://unitsofmeasure.org",
              "code": "/uL"
            },
            "high": {
              "value": 10540.00000,
              "unit": "/uL",
              "system": "http://unitsofmeasure.org",
              "code": "/uL"
            }
          }
        ]
      }
    },
    {
      "fullUrl": "Observation/Observation.1.1.0.0",
      "resource": {
        "resourceType": "Observation",
        "id": "Observation.1.1.0.0",
        "meta": {
          "profile": [
            "https://www.ehealth.fgov.be/standards/fhir/StructureDefinition/be-observation-laboratory"
          ]
        },
        "text": {
          "status": "generated",
          "div": "<div xmlns=\"http://www.w3.org/1999/xhtml\"><p><b>code: </b>Formule</p><p><b>subject: </b>Patient/6803360</p><p><b>effective: </b>2021-11-04T00:00:00+01:00</p><p><b>performer: </b>Practitioner/Responsible</p><p><b>member: </b> // Observation/Observation.1.1.0.1 // Observation/Observation.1.1.0.2 // Observation/Observation.1.1.0.3 // Observation/Observation.1.1.0.4 // Observation/Observation.1.1.0.5 // </p></div>"
        },
        "status": "final",
        "code": {
          "text": "Formule"
        },
        "subject": {
          "reference": "Patient/6803360"
        },
        "effectiveDateTime": "2021-11-04T00:00:00+01:00",
        "performer": [
          {
            "reference": "Practitioner/Responsible"
          }
        ],
        "hasMember": [
          {
            "reference": "Observation/Observation.1.1.0.1"
          },
          {
            "reference": "Observation/Observation.1.1.0.2"
          },
          {
            "reference": "Observation/Observation.1.1.0.3"
          },
          {
            "reference": "Observation/Observation.1.1.0.4"
          },
          {
            "reference": "Observation/Observation.1.1.0.5"
          }
        ]
      }
    },
    {
      "fullUrl": "Observation/Observation.1.1.0.1",
      "resource": {
        "resourceType": "Observation",
        "id": "Observation.1.1.0.1",
        "meta": {
          "profile": [
            "https://www.ehealth.fgov.be/standards/fhir/StructureDefinition/be-observation-laboratory"
          ]
        },
        "text": {
          "status": "generated",
          "div": "<div xmlns=\"http://www.w3.org/1999/xhtml\"><p><b>code: </b>http://loinc.org 26511-6 Neutrofiele segmenten</p><p><b>subject: </b>Patient/6803360</p><p><b>effective: </b>2021-11-04T00:00:00+01:00</p><p><b>performer: </b>Practitioner/Responsible</p><p><b>result: </b>47,0000000000 %</p><p><b>specimen: </b>Specimen/001815333044</p><p><b>interpretation: </b></p><p><b>referenceRange: </b> // Low: 39,20000 % // High: 72,90000 % // </p></div>"
        },
        "status": "final",
        "code": {
          "coding": [
            {
              "system": "http://loinc.org",
              "code": "26511-6"
            }
          ],
          "text": "Neutrofiele segmenten"
        },
        "subject": {
          "reference": "Patient/6803360"
        },
        "effectiveDateTime": "2021-11-04T00:00:00+01:00",
        "issued": "2021-11-04T13:17:29+01:00",
        "performer": [
          {
            "reference": "Practitioner/Responsible"
          }
        ],
        "valueQuantity": {
          "value": 47.0000000000,
          "unit": "%",
          "system": "http://unitsofmeasure.org",
          "code": "%"
        },
        "specimen": {
          "reference": "Specimen/001815333044"
        },
        "referenceRange": [
          {
            "low": {
              "value": 39.20000,
              "unit": "%",
              "system": "http://unitsofmeasure.org",
              "code": "%"
            },
            "high": {
              "value": 72.90000,
              "unit": "%",
              "system": "http://unitsofmeasure.org",
              "code": "%"
            }
          }
        ]
      }
    },
    {
      "fullUrl": "Observation/Observation.1.1.0.2",
      "resource": {
        "resourceType": "Observation",
        "id": "Observation.1.1.0.2",
        "meta": {
          "profile": [
            "https://www.ehealth.fgov.be/standards/fhir/StructureDefinition/be-observation-laboratory"
          ]
        },
        "text": {
          "status": "generated",
          "div": "<div xmlns=\"http://www.w3.org/1999/xhtml\"><p><b>code: </b>http://loinc.org 26450-7 Eosinofielen</p><p><b>subject: </b>Patient/6803360</p><p><b>effective: </b>2021-11-04T00:00:00+01:00</p><p><b>performer: </b>Practitioner/Responsible</p><p><b>result: </b>0,0000000000 %</p><p><b>specimen: </b>Specimen/001815333044</p><p><b>interpretation: </b></p><p><b>referenceRange: </b> // High: 8,40000 % // </p></div>"
        },
        "status": "final",
        "code": {
          "coding": [
            {
              "system": "http://loinc.org",
              "code": "26450-7"
            }
          ],
          "text": "Eosinofielen"
        },
        "subject": {
          "reference": "Patient/6803360"
        },
        "effectiveDateTime": "2021-11-04T00:00:00+01:00",
        "issued": "2021-11-04T13:17:41+01:00",
        "performer": [
          {
            "reference": "Practitioner/Responsible"
          }
        ],
        "valueQuantity": {
          "value": 0.0000000000,
          "unit": "%",
          "system": "http://unitsofmeasure.org",
          "code": "%"
        },
        "specimen": {
          "reference": "Specimen/001815333044"
        },
        "referenceRange": [
          {
            "high": {
              "value": 8.40000,
              "unit": "%",
              "system": "http://unitsofmeasure.org",
              "code": "%"
            }
          }
        ]
      }
    },
    {
      "fullUrl": "Observation/Observation.1.1.0.3",
      "resource": {
        "resourceType": "Observation",
        "id": "Observation.1.1.0.3",
        "meta": {
          "profile": [
            "https://www.ehealth.fgov.be/standards/fhir/StructureDefinition/be-observation-laboratory"
          ]
        },
        "text": {
          "status": "generated",
          "div": "<div xmlns=\"http://www.w3.org/1999/xhtml\"><p><b>code: </b>http://loinc.org 30180-4 Basofielen</p><p><b>subject: </b>Patient/6803360</p><p><b>effective: </b>2021-11-04T00:00:00+01:00</p><p><b>performer: </b>Practitioner/Responsible</p><p><b>result: </b>1,0000000000 %</p><p><b>specimen: </b>Specimen/001815333044</p><p><b>interpretation: </b></p><p><b>referenceRange: </b> // High: 1,50000 % // </p></div>"
        },
        "status": "final",
        "code": {
          "coding": [
            {
              "system": "http://loinc.org",
              "code": "30180-4"
            }
          ],
          "text": "Basofielen"
        },
        "subject": {
          "reference": "Patient/6803360"
        },
        "effectiveDateTime": "2021-11-04T00:00:00+01:00",
        "issued": "2021-11-04T13:17:54+01:00",
        "performer": [
          {
            "reference": "Practitioner/Responsible"
          }
        ],
        "valueQuantity": {
          "value": 1.0000000000,
          "unit": "%",
          "system": "http://unitsofmeasure.org",
          "code": "%"
        },
        "specimen": {
          "reference": "Specimen/001815333044"
        },
        "referenceRange": [
          {
            "high": {
              "value": 1.50000,
              "unit": "%",
              "system": "http://unitsofmeasure.org",
              "code": "%"
            }
          }
        ]
      }
    },
    {
      "fullUrl": "Observation/Observation.1.1.0.4",
      "resource": {
        "resourceType": "Observation",
        "id": "Observation.1.1.0.4",
        "meta": {
          "profile": [
            "https://www.ehealth.fgov.be/standards/fhir/StructureDefinition/be-observation-laboratory"
          ]
        },
        "text": {
          "status": "generated",
          "div": "<div xmlns=\"http://www.w3.org/1999/xhtml\"><p><b>code: </b>http://loinc.org 26478-8 Lymfocyten</p><p><b>subject: </b>Patient/6803360</p><p><b>effective: </b>2021-11-04T00:00:00+01:00</p><p><b>performer: </b>Practitioner/Responsible</p><p><b>result: </b>34,0000000000 %</p><p><b>specimen: </b>Specimen/001815333044</p><p><b>interpretation: </b></p><p><b>referenceRange: </b> // Low: 15,70000 % // High: 47,00000 % // </p></div>"
        },
        "status": "final",
        "code": {
          "coding": [
            {
              "system": "http://loinc.org",
              "code": "26478-8"
            }
          ],
          "text": "Lymfocyten"
        },
        "subject": {
          "reference": "Patient/6803360"
        },
        "effectiveDateTime": "2021-11-04T00:00:00+01:00",
        "issued": "2021-11-04T13:17:58+01:00",
        "performer": [
          {
            "reference": "Practitioner/Responsible"
          }
        ],
        "valueQuantity": {
          "value": 34.0000000000,
          "unit": "%",
          "system": "http://unitsofmeasure.org",
          "code": "%"
        },
        "specimen": {
          "reference": "Specimen/001815333044"
        },
        "referenceRange": [
          {
            "low": {
              "value": 15.70000,
              "unit": "%",
              "system": "http://unitsofmeasure.org",
              "code": "%"
            },
            "high": {
              "value": 47.00000,
              "unit": "%",
              "system": "http://unitsofmeasure.org",
              "code": "%"
            }
          }
        ]
      }
    },
    {
      "fullUrl": "Observation/Observation.1.1.0.5",
      "resource": {
        "resourceType": "Observation",
        "id": "Observation.1.1.0.5",
        "meta": {
          "profile": [
            "https://www.ehealth.fgov.be/standards/fhir/StructureDefinition/be-observation-laboratory"
          ]
        },
        "text": {
          "status": "generated",
          "div": "<div xmlns=\"http://www.w3.org/1999/xhtml\"><p><b>code: </b>http://loinc.org 26485-3 Monocyten</p><p><b>subject: </b>Patient/6803360</p><p><b>effective: </b>2021-11-04T00:00:00+01:00</p><p><b>performer: </b>Practitioner/Responsible</p><p><b>result: </b>18,0000000000 %</p><p><b>specimen: </b>Specimen/001815333044</p><p><b>interpretation: </b>H</p><p><b>referenceRange: </b> // Low: 5,70000 % // High: 13,70000 % // </p></div>"
        },
        "status": "final",
        "code": {
          "coding": [
            {
              "system": "http://loinc.org",
              "code": "26485-3"
            }
          ],
          "text": "Monocyten"
        },
        "subject": {
          "reference": "Patient/6803360"
        },
        "effectiveDateTime": "2021-11-04T00:00:00+01:00",
        "issued": "2021-11-04T13:18:02+01:00",
        "performer": [
          {
            "reference": "Practitioner/Responsible"
          }
        ],
        "valueQuantity": {
          "value": 18.0000000000,
          "unit": "%",
          "system": "http://unitsofmeasure.org",
          "code": "%"
        },
        "interpretation": [
          {
            "coding": [
              {
                "system": "http://terminology.hl7.org/CodeSystem/v3-ObservationInterpretation",
                "code": "H"
              }
            ]
          }
        ],
        "specimen": {
          "reference": "Specimen/001815333044"
        },
        "referenceRange": [
          {
            "low": {
              "value": 5.70000,
              "unit": "%",
              "system": "http://unitsofmeasure.org",
              "code": "%"
            },
            "high": {
              "value": 13.70000,
              "unit": "%",
              "system": "http://unitsofmeasure.org",
              "code": "%"
            }
          }
        ]
      }
    },
    {
      "fullUrl": "Observation/Observation.1.2.0.0",
      "resource": {
        "resourceType": "Observation",
        "id": "Observation.1.2.0.0",
        "meta": {
          "profile": [
            "https://www.ehealth.fgov.be/standards/fhir/StructureDefinition/be-observation-laboratory"
          ]
        },
        "text": {
          "status": "generated",
          "div": "<div xmlns=\"http://www.w3.org/1999/xhtml\"><p><b>code: </b>Formule (absoluut)</p><p><b>subject: </b>Patient/6803360</p><p><b>effective: </b>2021-11-04T00:00:00+01:00</p><p><b>performer: </b>Practitioner/Responsible</p><p><b>member: </b> // Observation/Observation.1.2.0.1 // Observation/Observation.1.2.0.2 // Observation/Observation.1.2.0.3 // Observation/Observation.1.2.0.4 // Observation/Observation.1.2.0.5 // Observation/Observation.1.2.0.6 // </p></div>"
        },
        "status": "final",
        "code": {
          "text": "Formule (absoluut)"
        },
        "subject": {
          "reference": "Patient/6803360"
        },
        "effectiveDateTime": "2021-11-04T00:00:00+01:00",
        "performer": [
          {
            "reference": "Practitioner/Responsible"
          }
        ],
        "hasMember": [
          {
            "reference": "Observation/Observation.1.2.0.1"
          },
          {
            "reference": "Observation/Observation.1.2.0.2"
          },
          {
            "reference": "Observation/Observation.1.2.0.3"
          },
          {
            "reference": "Observation/Observation.1.2.0.4"
          },
          {
            "reference": "Observation/Observation.1.2.0.5"
          },
          {
            "reference": "Observation/Observation.1.2.0.6"
          }
        ]
      }
    },
    {
      "fullUrl": "Observation/Observation.1.2.0.1",
      "resource": {
        "resourceType": "Observation",
        "id": "Observation.1.2.0.1",
        "meta": {
          "profile": [
            "https://www.ehealth.fgov.be/standards/fhir/StructureDefinition/be-observation-laboratory"
          ]
        },
        "text": {
          "status": "generated",
          "div": "<div xmlns=\"http://www.w3.org/1999/xhtml\"><p><b>code: </b>http://loinc.org 26499-4 Neutrofiele segmenten</p><p><b>subject: </b>Patient/6803360</p><p><b>effective: </b>2021-11-04T00:00:00+01:00</p><p><b>performer: </b>Practitioner/Responsible</p><p><b>result: </b>1791,0000000000 /uL</p><p><b>specimen: </b>Specimen/001815333044</p><p><b>interpretation: </b></p><p><b>referenceRange: </b> // Low: 1760,00000 /uL // High: 7031,00000 /uL // </p></div>"
        },
        "status": "final",
        "code": {
          "coding": [
            {
              "system": "http://loinc.org",
              "code": "26499-4"
            }
          ],
          "text": "Neutrofiele segmenten"
        },
        "subject": {
          "reference": "Patient/6803360"
        },
        "effectiveDateTime": "2021-11-04T00:00:00+01:00",
        "issued": "2021-11-04T13:17:29+01:00",
        "performer": [
          {
            "reference": "Practitioner/Responsible"
          }
        ],
        "valueQuantity": {
          "value": 1791.0000000000,
          "unit": "/uL",
          "system": "http://unitsofmeasure.org",
          "code": "/uL"
        },
        "specimen": {
          "reference": "Specimen/001815333044"
        },
        "referenceRange": [
          {
            "low": {
              "value": 1760.00000,
              "unit": "/uL",
              "system": "http://unitsofmeasure.org",
              "code": "/uL"
            },
            "high": {
              "value": 7031.00000,
              "unit": "/uL",
              "system": "http://unitsofmeasure.org",
              "code": "/uL"
            }
          }
        ]
      }
    },
    {
      "fullUrl": "Observation/Observation.1.2.0.2",
      "resource": {
        "resourceType": "Observation",
        "id": "Observation.1.2.0.2",
        "meta": {
          "profile": [
            "https://www.ehealth.fgov.be/standards/fhir/StructureDefinition/be-observation-laboratory"
          ]
        },
        "text": {
          "status": "generated",
          "div": "<div xmlns=\"http://www.w3.org/1999/xhtml\"><p><b>code: </b>http://loinc.org 26449-9 Eosinofielen</p><p><b>subject: </b>Patient/6803360</p><p><b>effective: </b>2021-11-04T00:00:00+01:00</p><p><b>performer: </b>Practitioner/Responsible</p><p><b>result: </b>0,0000000000 /uL</p><p><b>specimen: </b>Specimen/001815333044</p><p><b>interpretation: </b></p><p><b>referenceRange: </b> // High: 559,00000 /uL // </p></div>"
        },
        "status": "final",
        "code": {
          "coding": [
            {
              "system": "http://loinc.org",
              "code": "26449-9"
            }
          ],
          "text": "Eosinofielen"
        },
        "subject": {
          "reference": "Patient/6803360"
        },
        "effectiveDateTime": "2021-11-04T00:00:00+01:00",
        "issued": "2021-11-04T13:17:41+01:00",
        "performer": [
          {
            "reference": "Practitioner/Responsible"
          }
        ],
        "valueQuantity": {
          "value": 0.0000000000,
          "unit": "/uL",
          "system": "http://unitsofmeasure.org",
          "code": "/uL"
        },
        "specimen": {
          "reference": "Specimen/001815333044"
        },
        "referenceRange": [
          {
            "high": {
              "value": 559.00000,
              "unit": "/uL",
              "system": "http://unitsofmeasure.org",
              "code": "/uL"
            }
          }
        ]
      }
    },
    {
      "fullUrl": "Observation/Observation.1.2.0.3",
      "resource": {
        "resourceType": "Observation",
        "id": "Observation.1.2.0.3",
        "meta": {
          "profile": [
            "https://www.ehealth.fgov.be/standards/fhir/StructureDefinition/be-observation-laboratory"
          ]
        },
        "text": {
          "status": "generated",
          "div": "<div xmlns=\"http://www.w3.org/1999/xhtml\"><p><b>code: </b>http://loinc.org 26444-0 Basofielen</p><p><b>subject: </b>Patient/6803360</p><p><b>effective: </b>2021-11-04T00:00:00+01:00</p><p><b>performer: </b>Practitioner/Responsible</p><p><b>result: </b>38,0000000000 /uL</p><p><b>specimen: </b>Specimen/001815333044</p><p><b>interpretation: </b></p><p><b>referenceRange: </b> // High: 102,00000 /uL // </p></div>"
        },
        "status": "final",
        "code": {
          "coding": [
            {
              "system": "http://loinc.org",
              "code": "26444-0"
            }
          ],
          "text": "Basofielen"
        },
        "subject": {
          "reference": "Patient/6803360"
        },
        "effectiveDateTime": "2021-11-04T00:00:00+01:00",
        "issued": "2021-11-04T13:17:54+01:00",
        "performer": [
          {
            "reference": "Practitioner/Responsible"
          }
        ],
        "valueQuantity": {
          "value": 38.0000000000,
          "unit": "/uL",
          "system": "http://unitsofmeasure.org",
          "code": "/uL"
        },
        "specimen": {
          "reference": "Specimen/001815333044"
        },
        "referenceRange": [
          {
            "high": {
              "value": 102.00000,
              "unit": "/uL",
              "system": "http://unitsofmeasure.org",
              "code": "/uL"
            }
          }
        ]
      }
    },
    {
      "fullUrl": "Observation/Observation.1.2.0.4",
      "resource": {
        "resourceType": "Observation",
        "id": "Observation.1.2.0.4",
        "meta": {
          "profile": [
            "https://www.ehealth.fgov.be/standards/fhir/StructureDefinition/be-observation-laboratory"
          ]
        },
        "text": {
          "status": "generated",
          "div": "<div xmlns=\"http://www.w3.org/1999/xhtml\"><p><b>code: </b>http://loinc.org 26474-7 Lymfocyten</p><p><b>subject: </b>Patient/6803360</p><p><b>effective: </b>2021-11-04T00:00:00+01:00</p><p><b>performer: </b>Practitioner/Responsible</p><p><b>result: </b>1295,0000000000 /uL</p><p><b>specimen: </b>Specimen/001815333044</p><p><b>interpretation: </b></p><p><b>referenceRange: </b> // Low: 964,00000 /uL // High: 3440,00000 /uL // </p></div>"
        },
        "status": "final",
        "code": {
          "coding": [
            {
              "system": "http://loinc.org",
              "code": "26474-7"
            }
          ],
          "text": "Lymfocyten"
        },
        "subject": {
          "reference": "Patient/6803360"
        },
        "effectiveDateTime": "2021-11-04T00:00:00+01:00",
        "issued": "2021-11-04T13:17:58+01:00",
        "performer": [
          {
            "reference": "Practitioner/Responsible"
          }
        ],
        "valueQuantity": {
          "value": 1295.0000000000,
          "unit": "/uL",
          "system": "http://unitsofmeasure.org",
          "code": "/uL"
        },
        "specimen": {
          "reference": "Specimen/001815333044"
        },
        "referenceRange": [
          {
            "low": {
              "value": 964.00000,
              "unit": "/uL",
              "system": "http://unitsofmeasure.org",
              "code": "/uL"
            },
            "high": {
              "value": 3440.00000,
              "unit": "/uL",
              "system": "http://unitsofmeasure.org",
              "code": "/uL"
            }
          }
        ]
      }
    },
    {
      "fullUrl": "Observation/Observation.1.2.0.5",
      "resource": {
        "resourceType": "Observation",
        "id": "Observation.1.2.0.5",
        "meta": {
          "profile": [
            "https://www.ehealth.fgov.be/standards/fhir/StructureDefinition/be-observation-laboratory"
          ]
        },
        "text": {
          "status": "generated",
          "div": "<div xmlns=\"http://www.w3.org/1999/xhtml\"><p><b>code: </b>http://loinc.org 26484-6 Monocyten</p><p><b>subject: </b>Patient/6803360</p><p><b>effective: </b>2021-11-04T00:00:00+01:00</p><p><b>performer: </b>Practitioner/Responsible</p><p><b>result: </b>686,0000000000 /uL</p><p><b>specimen: </b>Specimen/001815333044</p><p><b>interpretation: </b></p><p><b>referenceRange: </b> // Low: 320,00000 /uL // High: 979,00000 /uL // </p></div>"
        },
        "status": "final",
        "code": {
          "coding": [
            {
              "system": "http://loinc.org",
              "code": "26484-6"
            }
          ],
          "text": "Monocyten"
        },
        "subject": {
          "reference": "Patient/6803360"
        },
        "effectiveDateTime": "2021-11-04T00:00:00+01:00",
        "issued": "2021-11-04T13:18:02+01:00",
        "performer": [
          {
            "reference": "Practitioner/Responsible"
          }
        ],
        "valueQuantity": {
          "value": 686.0000000000,
          "unit": "/uL",
          "system": "http://unitsofmeasure.org",
          "code": "/uL"
        },
        "specimen": {
          "reference": "Specimen/001815333044"
        },
        "referenceRange": [
          {
            "low": {
              "value": 320.00000,
              "unit": "/uL",
              "system": "http://unitsofmeasure.org",
              "code": "/uL"
            },
            "high": {
              "value": 979.00000,
              "unit": "/uL",
              "system": "http://unitsofmeasure.org",
              "code": "/uL"
            }
          }
        ]
      }
    },
    {
      "fullUrl": "Observation/Observation.1.2.0.6",
      "resource": {
        "resourceType": "Observation",
        "id": "Observation.1.2.0.6",
        "meta": {
          "profile": [
            "https://www.ehealth.fgov.be/standards/fhir/StructureDefinition/be-observation-laboratory"
          ]
        },
        "text": {
          "status": "generated",
          "div": "<div xmlns=\"http://www.w3.org/1999/xhtml\"><p><b>code: </b>http://loinc.org 777-3 Trombocyten</p><p><b>subject: </b>Patient/6803360</p><p><b>effective: </b>2021-11-04T00:00:00+01:00</p><p><b>performer: </b>Practitioner/Responsible</p><p><b>result: </b>151,0000000000 10*3/uL</p><p><b>specimen: </b>Specimen/001815333044</p><p><b>interpretation: </b></p><p><b>referenceRange: </b> // Low: 148,00000 10*3/uL // High: 362,00000 10*3/uL // </p></div>"
        },
        "status": "final",
        "code": {
          "coding": [
            {
              "system": "http://loinc.org",
              "code": "777-3"
            }
          ],
          "text": "Trombocyten"
        },
        "subject": {
          "reference": "Patient/6803360"
        },
        "effectiveDateTime": "2021-11-04T00:00:00+01:00",
        "issued": "2021-11-04T13:18:10+01:00",
        "performer": [
          {
            "reference": "Practitioner/Responsible"
          }
        ],
        "valueQuantity": {
          "value": 151.0000000000,
          "unit": "10*3/uL",
          "system": "http://unitsofmeasure.org",
          "code": "10*3/uL"
        },
        "specimen": {
          "reference": "Specimen/001815333044"
        },
        "referenceRange": [
          {
            "low": {
              "value": 148.00000,
              "unit": "10*3/uL",
              "system": "http://unitsofmeasure.org",
              "code": "10*3/uL"
            },
            "high": {
              "value": 362.00000,
              "unit": "10*3/uL",
              "system": "http://unitsofmeasure.org",
              "code": "10*3/uL"
            }
          }
        ]
      }
    },
    {
      "fullUrl": "Observation/Observation.2.0.0.0",
      "resource": {
        "resourceType": "Observation",
        "id": "Observation.2.0.0.0",
        "meta": {
          "profile": [
            "https://www.ehealth.fgov.be/standards/fhir/StructureDefinition/be-observation-laboratory"
          ]
        },
        "text": {
          "status": "generated",
          "div": "<div xmlns=\"http://www.w3.org/1999/xhtml\"><p><b>code: </b>INFLAMMATIE</p><p><b>subject: </b>Patient/6803360</p><p><b>effective: </b>2021-11-04T00:00:00+01:00</p><p><b>performer: </b>Practitioner/Responsible</p><p><b>member: </b> // Observation/Observation.2.0.0.1 // </p></div>"
        },
        "status": "final",
        "code": {
          "text": "INFLAMMATIE"
        },
        "subject": {
          "reference": "Patient/6803360"
        },
        "effectiveDateTime": "2021-11-04T00:00:00+01:00",
        "performer": [
          {
            "reference": "Practitioner/Responsible"
          }
        ],
        "hasMember": [
          {
            "reference": "Observation/Observation.2.0.0.1"
          }
        ]
      }
    },
    {
      "fullUrl": "Observation/Observation.2.0.0.1",
      "resource": {
        "resourceType": "Observation",
        "id": "Observation.2.0.0.1",
        "meta": {
          "profile": [
            "https://www.ehealth.fgov.be/standards/fhir/StructureDefinition/be-observation-laboratory"
          ]
        },
        "text": {
          "status": "generated",
          "div": "<div xmlns=\"http://www.w3.org/1999/xhtml\"><p><b>code: </b>http://loinc.org 1988-5 CRP</p><p><b>subject: </b>Patient/6803360</p><p><b>effective: </b>2021-11-04T00:00:00+01:00</p><p><b>performer: </b>Practitioner/Responsible</p><p><b>result: </b>63,0000000000 mg/L</p><p><b>specimen: </b>Specimen/002815333044</p><p><b>interpretation: </b>H</p><p><b>referenceRange: </b> // High: 5,00000 mg/L // </p></div>"
        },
        "status": "final",
        "code": {
          "coding": [
            {
              "system": "http://loinc.org",
              "code": "1988-5"
            }
          ],
          "text": "CRP"
        },
        "subject": {
          "reference": "Patient/6803360"
        },
        "effectiveDateTime": "2021-11-04T00:00:00+01:00",
        "issued": "2021-11-04T13:18:15+01:00",
        "performer": [
          {
            "reference": "Practitioner/Responsible"
          }
        ],
        "valueQuantity": {
          "value": 63.0000000000,
          "unit": "mg/L",
          "system": "http://unitsofmeasure.org",
          "code": "mg/L"
        },
        "interpretation": [
          {
            "coding": [
              {
                "system": "http://terminology.hl7.org/CodeSystem/v3-ObservationInterpretation",
                "code": "H"
              }
            ]
          }
        ],
        "specimen": {
          "reference": "Specimen/002815333044"
        },
        "referenceRange": [
          {
            "high": {
              "value": 5.00000,
              "unit": "mg/L",
              "system": "http://unitsofmeasure.org",
              "code": "mg/L"
            }
          }
        ]
      }
    },
    {
      "fullUrl": "Observation/Observation.3.0.0.0",
      "resource": {
        "resourceType": "Observation",
        "id": "Observation.3.0.0.0",
        "meta": {
          "profile": [
            "https://www.ehealth.fgov.be/standards/fhir/StructureDefinition/be-observation-laboratory"
          ]
        },
        "text": {
          "status": "generated",
          "div": "<div xmlns=\"http://www.w3.org/1999/xhtml\"><p><b>code: </b>SCHILDKLIER</p><p><b>subject: </b>Patient/6803360</p><p><b>effective: </b>2021-11-04T00:00:00+01:00</p><p><b>performer: </b>Practitioner/Responsible</p><p><b>member: </b> // Observation/Observation.3.0.0.1 // </p></div>"
        },
        "status": "final",
        "code": {
          "text": "SCHILDKLIER"
        },
        "subject": {
          "reference": "Patient/6803360"
        },
        "effectiveDateTime": "2021-11-04T00:00:00+01:00",
        "performer": [
          {
            "reference": "Practitioner/Responsible"
          }
        ],
        "hasMember": [
          {
            "reference": "Observation/Observation.3.0.0.1"
          }
        ]
      }
    },
    {
      "fullUrl": "Observation/Observation.3.0.0.1",
      "resource": {
        "resourceType": "Observation",
        "id": "Observation.3.0.0.1",
        "meta": {
          "profile": [
            "https://www.ehealth.fgov.be/standards/fhir/StructureDefinition/be-observation-laboratory"
          ]
        },
        "text": {
          "status": "generated",
          "div": "<div xmlns=\"http://www.w3.org/1999/xhtml\"><p><b>code: </b>http://loinc.org 3016-3 TSH</p><p><b>subject: </b>Patient/6803360</p><p><b>effective: </b>2021-11-04T00:00:00+01:00</p><p><b>performer: </b>Practitioner/Responsible</p><p><b>result: </b>2,5000000000 mU/L</p><p><b>specimen: </b>Specimen/002815333044</p><p><b>interpretation: </b></p><p><b>referenceRange: </b> // Low: 0,27000 mU/L // High: 4,20000 mU/L // </p></div>"
        },
        "status": "final",
        "code": {
          "coding": [
            {
              "system": "http://loinc.org",
              "code": "3016-3"
            }
          ],
          "text": "TSH"
        },
        "subject": {
          "reference": "Patient/6803360"
        },
        "effectiveDateTime": "2021-11-04T00:00:00+01:00",
        "issued": "2021-11-04T13:18:22+01:00",
        "performer": [
          {
            "reference": "Practitioner/Responsible"
          }
        ],
        "valueQuantity": {
          "value": 2.5000000000,
          "unit": "mU/L",
          "system": "http://unitsofmeasure.org",
          "code": "mU/L"
        },
        "specimen": {
          "reference": "Specimen/002815333044"
        },
        "referenceRange": [
          {
            "low": {
              "value": 0.27000,
              "unit": "mU/L",
              "system": "http://unitsofmeasure.org",
              "code": "mU/L"
            },
            "high": {
              "value": 4.20000,
              "unit": "mU/L",
              "system": "http://unitsofmeasure.org",
              "code": "mU/L"
            }
          }
        ]
      }
    },
    {
      "fullUrl": "DiagnosticReport/815333044",
      "resource": {
        "resourceType": "DiagnosticReport",
        "id": "815333044",
        "meta": {
          "versionId": "25",
          "profile": [
            "https://www.ehealth.fgov.be/standards/fhir/StructureDefinition/be-laboratory-report"
          ]
        },
        "language": "nl",
        "text": {
          "status": "generated",
          "div": "<div xmlns=\"http://www.w3.org/1999/xhtml\" xml:lang=\"nl\" lang=\"nl\"><p><b>id: </b>815333044</p><p><b>basedOn: </b>ServiceRequest/815333044</p><p><b>status: </b>preliminary</p><p><b>category: </b>http://terminology.hl7.org/CodeSystem/v2-0074 LAB Laboratory</p><p><b>code: </b>http://loinc.org 26436-6 Laboratory studies (set)</p><p><b>subject: </b>Patient/6803360</p><p><b>effective: </b>2021-11-04T00:00:00+01:00</p><p><b>issued: </b>2021-11-24T09:01:45+01:00</p><p><b>performer: </b>Organization/81365677998</p><p><b>resultsInterpreter: </b>Practitioner/Responsible</p><p><b>specimen: </b> // Specimen/001815333044 // Specimen/002815333044 // </p><p><b>result: </b> // Observation/Observation.1.0.0.0 // Observation/Observation.2.0.0.0 // Observation/Observation.3.0.0.0 // </p></div>"
        },
        "identifier": [
          {
            "system": "http://www.macsys.be/hl7/DiagnosticReport",
            "value": "815333044"
          }
        ],
        "basedOn": [
          {
            "reference": "ServiceRequest/815333044"
          }
        ],
        "status": "preliminary",
        "category": [
          {
            "coding": [
              {
                "system": "http://terminology.hl7.org/CodeSystem/v2-0074",
                "code": "LAB",
                "display": "Laboratory"
              }
            ]
          }
        ],
        "code": {
          "coding": [
            {
              "system": "http://loinc.org",
              "code": "26436-6",
              "display": "Laboratory studies (set)"
            }
          ]
        },
        "subject": {
          "reference": "Patient/6803360"
        },
        "effectiveDateTime": "2021-11-04T00:00:00+01:00",
        "issued": "2021-11-24T09:01:45+01:00",
        "performer": [
          {
            "reference": "Organization/81365677998"
          }
        ],
        "resultsInterpreter": [
          {
            "reference": "Practitioner/Responsible"
          }
        ],
        "specimen": [
          {
            "reference": "Specimen/001815333044"
          },
          {
            "reference": "Specimen/002815333044"
          }
        ],
        "result": [
          {
            "reference": "Observation/Observation.1.0.0.0"
          },
          {
            "reference": "Observation/Observation.2.0.0.0"
          },
          {
            "reference": "Observation/Observation.3.0.0.0"
          }
        ]
      }
    },
    {
      "fullUrl": "Organization/81365677998",
      "resource": {
        "resourceType": "Organization",
        "id": "81365677998",
        "meta": {
          "profile": [
            "https://www.ehealth.fgov.be/standards/fhir/StructureDefinition/be-organization"
          ]
        },
        "text": {
          "status": "generated",
          "div": "<div xmlns=\"http://www.w3.org/1999/xhtml\"><p><b>identifier: </b>81365677998</p><p><b>name: </b>CENTRUM VOOR MEDISCHE ANALYSE</p><p><b>contact: </b>014/28.50.00</p><p><b>address: </b>Oud-Strijderslaan 199 2200 Herentals BE</p></div>"
        },
        "identifier": [
          {
            "use": "official",
            "type": {
              "coding": [
                {
                  "system": "http://terminology.hl7.org/CodeSystem/v2-0203",
                  "code": "MD",
                  "display": "Medical License number"
                }
              ]
            },
            "system": "https://www.ehealth.fgov.be/standards/fhir/NamingSystem/nihdi",
            "value": "81365677998"
          }
        ],
        "active": true,
        "type": [
          {
            "coding": [
              {
                "system": "https://www.ehealth.fgov.be/standards/fhir/CodeSystem/cd-hcparty",
                "code": "orglaboratory"
              }
            ]
          }
        ],
        "name": "CENTRUM VOOR MEDISCHE ANALYSE",
        "telecom": [
          {
            "system": "phone",
            "value": "014/28.50.00",
            "use": "work"
          },
          {
            "system": "fax",
            "value": "014/22.56.08",
            "use": "work"
          },
          {
            "system": "email",
            "value": "info@cma.be",
            "use": "work"
          },
          {
            "system": "url",
            "value": "http://www.cma.be",
            "use": "work"
          }
        ],
        "address": [
          {
            "use": "work",
            "type": "both",
            "line": [
              "Oud-Strijderslaan 199"
            ],
            "city": "Herentals",
            "postalCode": "2200",
            "country": "BE"
          }
        ]
      }
    },
    {
      "fullUrl": "Practitioner/8152",
      "resource": {
        "resourceType": "Practitioner",
        "id": "8152",
        "meta": {
          "profile": [
            "https://www.ehealth.fgov.be/standards/fhir/StructureDefinition/be-practitioner"
          ]
        },
        "text": {
          "status": "generated",
          "div": "<div xmlns=\"http://www.w3.org/1999/xhtml\"><p><b>identifier: </b>11849242860</p><p><b>name: </b>Waegemans Stefan</p><p><b>contact: </b>stefan.waegemans@cma.be</p><p><b>address: </b>Willekensmolenstraat 88/2 3500 Hasselt BE</p></div>"
        },
        "identifier": [
          {
            "use": "official",
            "system": "https://www.ehealth.fgov.be/standards/fhir/NamingSystem/nihdi",
            "value": "11849242860"
          }
        ],
        "name": [
          {
            "use": "official",
            "family": "Waegemans",
            "given": [
              "Stefan"
            ],
            "prefix": [
              "Dr."
            ]
          }
        ],
        "telecom": [
          {
            "system": "email",
            "value": "stefan.waegemans@cma.be",
            "use": "work"
          },
          {
            "system": "fax",
            "value": "(+32)11/243291",
            "use": "work"
          },
          {
            "system": "phone",
            "value": "(+32)11/225288",
            "use": "work"
          }
        ],
        "address": [
          {
            "use": "work",
            "type": "both",
            "line": [
              "Willekensmolenstraat 88/2"
            ],
            "city": "Hasselt",
            "postalCode": "3500",
            "country": "BE"
          }
        ],
        "gender": "unknown"
      }
    },
    {
      "fullUrl": "Practitioner/Responsible",
      "resource": {
        "resourceType": "Practitioner",
        "id": "Responsible",
        "meta": {
          "profile": [
            "https://www.ehealth.fgov.be/standards/fhir/StructureDefinition/be-practitioner"
          ]
        },
        "text": {
          "status": "generated",
          "div": "<div xmlns=\"http://www.w3.org/1999/xhtml\"><p><b>identifier: </b>68071432800</p><p><b>name: </b>Engelen Frans</p><p><b>contact: </b>014/28.50.00</p><p><b>address: </b>Oud-Strijderslaan 199 2200 Herentals BE</p></div>"
        },
        "identifier": [
          {
            "use": "official",
            "system": "https://www.ehealth.fgov.be/standards/fhir/NamingSystem/nihdi",
            "value": "68071432800"
          }
        ],
        "name": [
          {
            "use": "official",
            "family": "Engelen",
            "given": [
              "Frans"
            ]
          }
        ],
        "telecom": [
          {
            "system": "phone",
            "value": "014/28.50.00",
            "use": "work"
          }
        ],
        "address": [
          {
            "use": "work",
            "type": "both",
            "line": [
              "Oud-Strijderslaan 199"
            ],
            "city": "Herentals",
            "postalCode": "2200",
            "country": "BE"
          }
        ],
        "gender": "unknown"
      }
    },
    {
      "fullUrl": "Patient/6803360",
      "resource": {
        "resourceType": "Patient",
        "id": "6803360",
        "meta": {
          "profile": [
            "https://www.ehealth.fgov.be/standards/fhir/StructureDefinition/be-patient"
          ]
        },
        "text": {
          "status": "generated",
          "div": "<div xmlns=\"http://www.w3.org/1999/xhtml\"><p><b>identifier: </b>72032444577</p><p><b>name: </b>Waegemans Stefan</p><p><b>gender: </b>male</p><p><b>birthDate: </b>1972-03-24</p><p><b>address: </b>Willekensmolenstraat 88/2 3500 Hasselt BE</p><p><b>contact: </b>+3214285000</p></div>"
        },
        "identifier": [
          {
            "use": "official",
            "system": "https://www.ehealth.fgov.be/standards/fhir/NamingSystem/ssin",
            "value": "72032444577"
          }
        ],
        "active": true,
        "name": [
          {
            "use": "official",
            "family": "Waegemans",
            "given": [
              "Stefan"
            ]
          }
        ],
        "telecom": [
          {
            "system": "phone",
            "value": "+3214285000",
            "use": "home"
          },
          {
            "system": "email",
            "value": "STEFAN.WAEGEMANS@CMA.BE",
            "use": "home"
          }
        ],
        "address": [
          {
            "use": "home",
            "type": "both",
            "line": [
              "Willekensmolenstraat 88/2"
            ],
            "city": "Hasselt",
            "postalCode": "3500",
            "country": "BE"
          }
        ],
        "gender": "male",
        "birthDate": "1972-03-24"
      }
    },
    {
      "fullUrl": "ServiceRequest/815333044",
      "resource": {
        "resourceType": "ServiceRequest",
        "id": "815333044",
        "text": {
          "status": "generated",
          "div": "<div xmlns=\"http://www.w3.org/1999/xhtml\"><p><b>id: </b>815333044</p><p><b>intent: </b>order</p><p><b>status: </b>active</p><p><b>category: </b>http://snomed.info/sct 108252007 Laboratory procedure</p><p><b>subject: </b>Patient/6803360</p><p><b>requester: </b>Practitioner/8152</p><p><b>authoredOn: </b>2021-11-04T13:15:00+01:00</p></div>"
        },
        "identifier": [
          {
            "system": "http://www.macsys.be/hl7/ServiceRequest",
            "value": "815333044"
          }
        ],
        "status": "active",
        "intent": "order",
        "category": [
          {
            "coding": [
              {
                "system": "http://snomed.info/sct",
                "code": "108252007",
                "display": "Laboratory procedure"
              }
            ]
          }
        ],
        "subject": {
          "reference": "Patient/6803360"
        },
        "priority": "routine",
        "authoredOn": "2021-11-04T13:15:00+01:00",
        "requester": {
          "reference": "Practitioner/8152"
        },
        "note": [
          {
            "text": "Kopie op verzoek van Dr. WAEGEMANS STEFAN\r\n"
          }
        ]
      }
    }
  ]
}
