{"resourceType":"Bundle","type":"document","timestamp":"2021-12-09T12:41:36Z","identifier":{"system":"https://www.ehealth.fgov.be/lab-report/bundle-id","value":"81365677998.815333052.2"},"entry":[{"fullUrl":"Composition/815333052","resource":{"resourceType":"Composition","id":"815333052","meta":{"profile":["https://www.ehealth.fgov.be/standards/fhir/StructureDefinition/be-laboratory-report-composition"]},"text":{"status":"generated","div":"<div xmlns=\"http://www.w3.org/1999/xhtml\"><p><b>id: </b>815333052</p><p><b>status: </b>preliminary</p><p><b>type: </b>http://loinc.org 11502-2 Laboratory report</p><p><b>date: </b>2021-12-09T12:41:36+01:00</p><p><b>author: </b>Practitioner/Responsible</p><p><b>title: </b>Laboratory Report</p></div>"},"identifier":{"system":"http://www.macsys.be/hl7/Composition","value":"815333052"},"status":"preliminary","type":{"coding":[{"system":"http://loinc.org","code":"11502-2"}],"text":"Laboratory report"},"subject":{"reference":"Patient/6388178"},"date":"2021-12-09T12:41:36+01:00","author":[{"reference":"Practitioner/Responsible"}],"title":"Laboratory Report","section":[{"entry":[{"reference":"DiagnosticReport/815333052"}]}]}},{"fullUrl":"Specimen/001815333052","resource":{"resourceType":"Specimen","id":"001815333052","meta":{"profile":["https://www.ehealth.fgov.be/standards/fhir/StructureDefinition/be-specimen-laboratory"]},"text":{"status":"generated","div":"<div xmlns=\"http://www.w3.org/1999/xhtml\"><p><b>id: </b>001815333052</p><p><b>status: </b>available</p><p><b>type: </b>http://terminology.hl7.org/CodeSystem/v2-0487 SER Serum Serum</p><p><b>receivedTime: </b>2021-12-07T09:29:45+01:00</p><p><b>collector: </b>Practitioner/8152</p></div>"},"identifier":[{"system":"http://www.macsys.be/hl7/Specimen","value":"001815333052"}],"status":"available","type":{"coding":[{"system":"http://terminology.hl7.org/CodeSystem/v2-0487","code":"SER","display":"Serum"}],"text":"Serum"},"subject":{"reference":"Patient/6388178"},"receivedTime":"2021-12-07T09:29:45+01:00","collection":{"collectedDateTime":"2021-12-07T00:00:00+01:00","collector":{"reference":"Practitioner/8152"}}}},{"fullUrl":"Observation/Observation.1.0.0.0","resource":{"resourceType":"Observation","id":"Observation.1.0.0.0","meta":{"profile":["https://www.ehealth.fgov.be/standards/fhir/StructureDefinition/be-observation-laboratory"]},"text":{"status":"generated","div":"<div xmlns=\"http://www.w3.org/1999/xhtml\"><p><b>code: </b>EIWITMETABOLISME</p><p><b>subject: </b>Patient/6388178</p><p><b>effective: </b>2021-12-07T00:00:00+01:00</p><p><b>performer: </b>Practitioner/Responsible</p><p><b>member: </b> // Observation/Observation.1.0.0.1 // </p></div>"},"status":"final","code":{"text":"EIWITMETABOLISME"},"subject":{"reference":"Patient/6388178"},"effectiveDateTime":"2021-12-07T00:00:00+01:00","performer":[{"reference":"Practitioner/Responsible"}],"hasMember":[{"reference":"Observation/Observation.1.0.0.1"}]}},{"fullUrl":"Observation/Observation.1.0.0.1","resource":{"resourceType":"Observation","id":"Observation.1.0.0.1","meta":{"profile":["https://www.ehealth.fgov.be/standards/fhir/StructureDefinition/be-observation-laboratory"]},"text":{"status":"generated","div":"<div xmlns=\"http://www.w3.org/1999/xhtml\"><p><b>code: </b>http://loinc.org 2885-2 Totaal eiwit</p><p><b>subject: </b>Patient/6388178</p><p><b>effective: </b>2021-12-07T00:00:00+01:00</p><p><b>performer: </b>Practitioner/Responsible</p><p><b>result: </b>77 g/L</p><p><b>specimen: </b>Specimen/001815333052</p><p><b>note: </b>Analyse gedekt door accreditatie.</p><p><b>referenceRange: </b> // Low: 60 g/L // High: 80 g/L // </p></div>"},"status":"final","code":{"coding":[{"system":"http://loinc.org","code":"2885-2"}],"text":"Totaal eiwit"},"subject":{"reference":"Patient/6388178"},"effectiveDateTime":"2021-12-07T00:00:00+01:00","issued":"2021-12-07T09:29:54+01:00","performer":[{"reference":"Practitioner/Responsible"}],"valueQuantity":{"value":77,"unit":"g/L","system":"http://unitsofmeasure.org","code":"g/L"},"note":[{"text":"Analyse gedekt door accreditatie."}],"specimen":{"reference":"Specimen/001815333052"},"referenceRange":[{"low":{"value":60,"unit":"g/L","system":"http://unitsofmeasure.org","code":"g/L"},"high":{"value":80,"unit":"g/L","system":"http://unitsofmeasure.org","code":"g/L"}}]}},{"fullUrl":"Observation/Observation.2.0.0.0","resource":{"resourceType":"Observation","id":"Observation.2.0.0.0","meta":{"profile":["https://www.ehealth.fgov.be/standards/fhir/StructureDefinition/be-observation-laboratory"]},"text":{"status":"generated","div":"<div xmlns=\"http://www.w3.org/1999/xhtml\"><p><b>code: </b>LIPIDEN</p><p><b>subject: </b>Patient/6388178</p><p><b>effective: </b>2021-12-07T00:00:00+01:00</p><p><b>performer: </b>Practitioner/Responsible</p><p><b>member: </b> // Observation/Observation.2.0.0.1 // Observation/Observation.2.0.0.2 // Observation/Observation.2.0.0.3 // Observation/Observation.2.0.0.4 // Observation/Observation.2.0.0.5 // Observation/Observation.2.0.0.6 // </p></div>"},"status":"final","code":{"text":"LIPIDEN"},"subject":{"reference":"Patient/6388178"},"effectiveDateTime":"2021-12-07T00:00:00+01:00","performer":[{"reference":"Practitioner/Responsible"}],"hasMember":[{"reference":"Observation/Observation.2.0.0.1"},{"reference":"Observation/Observation.2.0.0.2"},{"reference":"Observation/Observation.2.0.0.3"},{"reference":"Observation/Observation.2.0.0.4"},{"reference":"Observation/Observation.2.0.0.5"},{"reference":"Observation/Observation.2.0.0.6"}]}},{"fullUrl":"Observation/Observation.2.0.0.1","resource":{"resourceType":"Observation","id":"Observation.2.0.0.1","meta":{"profile":["https://www.ehealth.fgov.be/standards/fhir/StructureDefinition/be-observation-laboratory"]},"text":{"status":"generated","div":"<div xmlns=\"http://www.w3.org/1999/xhtml\"><p><b>code: </b>http://loinc.org 2093-3 Cholesterol totaal</p><p><b>subject: </b>Patient/6388178</p><p><b>effective: </b>2021-12-07T00:00:00+01:00</p><p><b>performer: </b>Practitioner/Responsible</p><p><b>result: </b>203 mg/dL</p><p><b>specimen: </b>Specimen/001815333052</p><p><b>interpretation: </b>H</p><p><b>note: </b>Analyse gedekt door accreditatie.</p><p><b>referenceRange: </b> // High: 190 mg/dL // Secundaire preventie en diabetici: &lt;  175\r\n // </p></div>"},"status":"final","code":{"coding":[{"system":"http://loinc.org","code":"2093-3"}],"text":"Cholesterol totaal"},"subject":{"reference":"Patient/6388178"},"effectiveDateTime":"2021-12-07T00:00:00+01:00","issued":"2021-12-07T09:29:57+01:00","performer":[{"reference":"Practitioner/Responsible"}],"valueQuantity":{"value":203,"unit":"mg/dL","system":"http://unitsofmeasure.org","code":"mg/dL"},"interpretation":[{"coding":[{"system":"http://terminology.hl7.org/CodeSystem/v3-ObservationInterpretation","code":"H"}]}],"note":[{"text":"Analyse gedekt door accreditatie."}],"specimen":{"reference":"Specimen/001815333052"},"referenceRange":[{"high":{"value":190,"unit":"mg/dL","system":"http://unitsofmeasure.org","code":"mg/dL"},"text":"Secundaire preventie en diabetici: <  175\r\n"}]}},{"fullUrl":"Observation/Observation.2.0.0.2","resource":{"resourceType":"Observation","id":"Observation.2.0.0.2","meta":{"profile":["https://www.ehealth.fgov.be/standards/fhir/StructureDefinition/be-observation-laboratory"]},"text":{"status":"generated","div":"<div xmlns=\"http://www.w3.org/1999/xhtml\"><p><b>code: </b>http://loinc.org 2085-9 HDL-cholesterol</p><p><b>subject: </b>Patient/6388178</p><p><b>effective: </b>2021-12-07T00:00:00+01:00</p><p><b>performer: </b>Practitioner/Responsible</p><p><b>result: </b>60 mg/dL</p><p><b>specimen: </b>Specimen/001815333052</p><p><b>note: </b>Analyse gedekt door accreditatie.</p><p><b>referenceRange: </b> // Low: 41 mg/dL // </p></div>"},"status":"final","code":{"coding":[{"system":"http://loinc.org","code":"2085-9"}],"text":"HDL-cholesterol"},"subject":{"reference":"Patient/6388178"},"effectiveDateTime":"2021-12-07T00:00:00+01:00","issued":"2021-12-07T09:29:59+01:00","performer":[{"reference":"Practitioner/Responsible"}],"valueQuantity":{"value":60,"unit":"mg/dL","system":"http://unitsofmeasure.org","code":"mg/dL"},"note":[{"text":"Analyse gedekt door accreditatie."}],"specimen":{"reference":"Specimen/001815333052"},"referenceRange":[{"low":{"value":41,"unit":"mg/dL","system":"http://unitsofmeasure.org","code":"mg/dL"}}]}},{"fullUrl":"Observation/Observation.2.0.0.3","resource":{"resourceType":"Observation","id":"Observation.2.0.0.3","meta":{"profile":["https://www.ehealth.fgov.be/standards/fhir/StructureDefinition/be-observation-laboratory"]},"text":{"status":"generated","div":"<div xmlns=\"http://www.w3.org/1999/xhtml\"><p><b>code: </b>http://loinc.org 43396-1 Non-HDL-cholesterol</p><p><b>subject: </b>Patient/6388178</p><p><b>effective: </b>2021-12-07T00:00:00+01:00</p><p><b>performer: </b>Practitioner/Responsible</p><p><b>result: </b>143 mg/dL</p><p><b>specimen: </b>Specimen/001815333052</p><p><b>interpretation: </b>H</p><p><b>note: </b>Analyse gedekt door accreditatie.</p><p><b>referenceRange: </b> // High: 130 mg/dL // Streefwaarde bij matig CV risico      &lt;130 mg/dL\r\nStreefwaarde bij hoog CV risico       &lt;100 mg/dL\r\nStreefwaarde bij zeer hoog CV risico   &lt;85 mg/dL // </p></div>"},"status":"final","code":{"coding":[{"system":"http://loinc.org","code":"43396-1"}],"text":"Non-HDL-cholesterol"},"subject":{"reference":"Patient/6388178"},"effectiveDateTime":"2021-12-07T00:00:00+01:00","issued":"2021-12-07T09:29:59+01:00","performer":[{"reference":"Practitioner/Responsible"}],"valueQuantity":{"value":143,"unit":"mg/dL","system":"http://unitsofmeasure.org","code":"mg/dL"},"interpretation":[{"coding":[{"system":"http://terminology.hl7.org/CodeSystem/v3-ObservationInterpretation","code":"H"}]}],"note":[{"text":"Analyse gedekt door accreditatie."}],"specimen":{"reference":"Specimen/001815333052"},"referenceRange":[{"high":{"value":130,"unit":"mg/dL","system":"http://unitsofmeasure.org","code":"mg/dL"},"text":"Streefwaarde bij matig CV risico      <130 mg/dL\r\nStreefwaarde bij hoog CV risico       <100 mg/dL\r\nStreefwaarde bij zeer hoog CV risico   <85 mg/dL"}]}},{"fullUrl":"Observation/Observation.2.0.0.4","resource":{"resourceType":"Observation","id":"Observation.2.0.0.4","meta":{"profile":["https://www.ehealth.fgov.be/standards/fhir/StructureDefinition/be-observation-laboratory"]},"text":{"status":"generated","div":"<div xmlns=\"http://www.w3.org/1999/xhtml\"><p><b>code: </b>http://loinc.org 9830-1 Ratio tot.chol./HDL-chol.</p><p><b>subject: </b>Patient/6388178</p><p><b>effective: </b>2021-12-07T00:00:00+01:00</p><p><b>performer: </b>Practitioner/Responsible</p><p><b>result: </b>3,38 mg/mg</p><p><b>specimen: </b>Specimen/001815333052</p><p><b>note: </b>Analyse gedekt door accreditatie.</p><p><b>referenceRange: </b> // High: 5,00 mg/mg // </p></div>"},"status":"final","code":{"coding":[{"system":"http://loinc.org","code":"9830-1"}],"text":"Ratio tot.chol./HDL-chol."},"subject":{"reference":"Patient/6388178"},"effectiveDateTime":"2021-12-07T00:00:00+01:00","issued":"2021-12-07T09:29:59+01:00","performer":[{"reference":"Practitioner/Responsible"}],"valueQuantity":{"value":3.38,"unit":"mg/mg","system":"http://unitsofmeasure.org","code":"mg/mg"},"note":[{"text":"Analyse gedekt door accreditatie."}],"specimen":{"reference":"Specimen/001815333052"},"referenceRange":[{"high":{"value":5.00,"unit":"mg/mg","system":"http://unitsofmeasure.org","code":"mg/mg"}}]}},{"fullUrl":"Observation/Observation.2.0.0.5","resource":{"resourceType":"Observation","id":"Observation.2.0.0.5","meta":{"profile":["https://www.ehealth.fgov.be/standards/fhir/StructureDefinition/be-observation-laboratory"]},"text":{"status":"generated","div":"<div xmlns=\"http://www.w3.org/1999/xhtml\"><p><b>code: </b>http://loinc.org 13457-7 LDL-cholesterol berekend</p><p><b>subject: </b>Patient/6388178</p><p><b>effective: </b>2021-12-07T00:00:00+01:00</p><p><b>performer: </b>Practitioner/Responsible</p><p><b>result: </b>120 mg/dL</p><p><b>specimen: </b>Specimen/001815333052</p><p><b>interpretation: </b>H</p><p><b>note: </b>Analyse gedekt door accreditatie.</p><p><b>referenceRange: </b> // High: 115 mg/dL // Streefwaarde bij matig CV risico      &lt;100 mg/dL\r\nStreefwaarde bij hoog CV risico        &lt;70 mg/dL\r\nStreefwaarde bij zeer hoog CV risico   &lt;55 mg/dL // </p></div>"},"status":"final","code":{"coding":[{"system":"http://loinc.org","code":"13457-7"}],"text":"LDL-cholesterol berekend"},"subject":{"reference":"Patient/6388178"},"effectiveDateTime":"2021-12-07T00:00:00+01:00","issued":"2021-12-07T09:30:14+01:00","performer":[{"reference":"Practitioner/Responsible"}],"valueQuantity":{"value":120,"unit":"mg/dL","system":"http://unitsofmeasure.org","code":"mg/dL"},"interpretation":[{"coding":[{"system":"http://terminology.hl7.org/CodeSystem/v3-ObservationInterpretation","code":"H"}]}],"note":[{"text":"Analyse gedekt door accreditatie."}],"specimen":{"reference":"Specimen/001815333052"},"referenceRange":[{"high":{"value":115,"unit":"mg/dL","system":"http://unitsofmeasure.org","code":"mg/dL"},"text":"Streefwaarde bij matig CV risico      <100 mg/dL\r\nStreefwaarde bij hoog CV risico        <70 mg/dL\r\nStreefwaarde bij zeer hoog CV risico   <55 mg/dL"}]}},{"fullUrl":"Observation/Observation.2.0.0.6","resource":{"resourceType":"Observation","id":"Observation.2.0.0.6","meta":{"profile":["https://www.ehealth.fgov.be/standards/fhir/StructureDefinition/be-observation-laboratory"]},"text":{"status":"generated","div":"<div xmlns=\"http://www.w3.org/1999/xhtml\"><p><b>code: </b>http://loinc.org 2571-8 Triglyceriden</p><p><b>subject: </b>Patient/6388178</p><p><b>effective: </b>2021-12-07T00:00:00+01:00</p><p><b>performer: </b>Practitioner/Responsible</p><p><b>result: </b>114 mg/dL</p><p><b>specimen: </b>Specimen/001815333052</p><p><b>note: </b>Analyse gedekt door accreditatie.</p><p><b>referenceRange: </b> // High: 150 mg/dL // </p></div>"},"status":"final","code":{"coding":[{"system":"http://loinc.org","code":"2571-8"}],"text":"Triglyceriden"},"subject":{"reference":"Patient/6388178"},"effectiveDateTime":"2021-12-07T00:00:00+01:00","issued":"2021-12-07T09:30:14+01:00","performer":[{"reference":"Practitioner/Responsible"}],"valueQuantity":{"value":114,"unit":"mg/dL","system":"http://unitsofmeasure.org","code":"mg/dL"},"note":[{"text":"Analyse gedekt door accreditatie."}],"specimen":{"reference":"Specimen/001815333052"},"referenceRange":[{"high":{"value":150,"unit":"mg/dL","system":"http://unitsofmeasure.org","code":"mg/dL"}}]}},{"fullUrl":"DiagnosticReport/815333052","resource":{"resourceType":"DiagnosticReport","id":"815333052","meta":{"versionId":"2","profile":["https://www.ehealth.fgov.be/standards/fhir/StructureDefinition/be-laboratory-report"]},"language":"nl","text":{"status":"generated","div":"<div xmlns=\"http://www.w3.org/1999/xhtml\" xml:lang=\"nl\" lang=\"nl\"><p><b>id: </b>815333052</p><p><b>basedOn: </b>ServiceRequest/815333052</p><p><b>status: </b>preliminary</p><p><b>category: </b>http://terminology.hl7.org/CodeSystem/v2-0074 LAB Laboratory</p><p><b>code: </b>http://loinc.org 26436-6 Laboratory studies (set)</p><p><b>subject: </b>Patient/6388178</p><p><b>effective: </b>2021-12-07T00:00:00+01:00</p><p><b>issued: </b>2021-12-09T12:41:36+01:00</p><p><b>performer: </b>Organization/81365677998</p><p><b>resultsInterpreter: </b>Practitioner/Responsible</p><p><b>specimen: </b> // Specimen/001815333052 // </p><p><b>result: </b> // Observation/Observation.1.0.0.0 // Observation/Observation.2.0.0.0 // </p></div>"},"identifier":[{"system":"https://www.ehealth.fgov.be/lab-report/diagnostic-report-id","value":"81365677998.815333052"}],"basedOn":[{"reference":"ServiceRequest/815333052"}],"status":"preliminary","category":[{"coding":[{"system":"http://terminology.hl7.org/CodeSystem/v2-0074","code":"LAB","display":"Laboratory"}]}],"code":{"coding":[{"system":"http://loinc.org","code":"26436-6","display":"Laboratory studies (set)"}]},"subject":{"reference":"Patient/6388178"},"effectiveDateTime":"2021-12-07T00:00:00+01:00","issued":"2021-12-09T12:41:36+01:00","performer":[{"reference":"Organization/81365677998"}],"resultsInterpreter":[{"reference":"Practitioner/Responsible"}],"specimen":[{"reference":"Specimen/001815333052"}],"result":[{"reference":"Observation/Observation.1.0.0.0"},{"reference":"Observation/Observation.2.0.0.0"}]}},{"fullUrl":"Organization/81365677998","resource":{"resourceType":"Organization","id":"81365677998","meta":{"profile":["https://www.ehealth.fgov.be/standards/fhir/StructureDefinition/be-organization"]},"text":{"status":"generated","div":"<div xmlns=\"http://www.w3.org/1999/xhtml\"><p><b>identifier: </b>81365677998</p><p><b>name: </b>CENTRUM VOOR MEDISCHE ANALYSE</p><p><b>contact: </b>014/28.50.00</p><p><b>address: </b>Oud-Strijderslaan 199 2200 Herentals BE</p></div>"},"identifier":[{"use":"official","type":{"coding":[{"system":"http://terminology.hl7.org/CodeSystem/v2-0203","code":"MD","display":"Medical License number"}]},"system":"https://www.ehealth.fgov.be/standards/fhir/NamingSystem/nihdi","value":"81365677998"},{"use":"official","system":"https://economie.fgov.be/belac","value":"007-MED"}],"active":true,"type":[{"coding":[{"system":"https://www.ehealth.fgov.be/standards/fhir/CodeSystem/cd-hcparty","code":"orglaboratory"}]}],"name":"CENTRUM VOOR MEDISCHE ANALYSE","telecom":[{"system":"phone","value":"014/28.50.00","use":"work"},{"system":"fax","value":"014/22.56.08","use":"work"},{"system":"email","value":"info@cma.be","use":"work"},{"system":"url","value":"http://www.cma.be","use":"work"}],"address":[{"use":"work","type":"both","line":["Oud-Strijderslaan 199"],"city":"Herentals","postalCode":"2200","country":"BE"}]}},{"fullUrl":"Practitioner/8152","resource":{"resourceType":"Practitioner","id":"8152","meta":{"profile":["https://www.ehealth.fgov.be/standards/fhir/StructureDefinition/be-practitioner"]},"text":{"status":"generated","div":"<div xmlns=\"http://www.w3.org/1999/xhtml\"><p><b>identifier: </b>11849242860</p><p><b>name: </b>Waegemans Stefan</p><p><b>contact: </b>stefan.waegemans@cma.be</p><p><b>address: </b>Willekensmolenstraat 88/2 3500 Hasselt BE</p></div>"},"identifier":[{"use":"official","system":"https://www.ehealth.fgov.be/standards/fhir/NamingSystem/nihdi","value":"11849242860"}],"name":[{"use":"official","family":"Waegemans","given":["Stefan"],"prefix":["Dr."]}],"telecom":[{"system":"email","value":"stefan.waegemans@cma.be","use":"work"},{"system":"fax","value":"(+32)11/243291","use":"work"},{"system":"phone","value":"(+32)11/225288","use":"work"}],"address":[{"use":"work","type":"both","line":["Willekensmolenstraat 88/2"],"city":"Hasselt","postalCode":"3500","country":"BE"}],"gender":"unknown"}},{"fullUrl":"Practitioner/Responsible","resource":{"resourceType":"Practitioner","id":"Responsible","meta":{"profile":["https://www.ehealth.fgov.be/standards/fhir/StructureDefinition/be-practitioner"]},"text":{"status":"generated","div":"<div xmlns=\"http://www.w3.org/1999/xhtml\"><p><b>identifier: </b>68071432800</p><p><b>name: </b>Engelen Frans</p><p><b>contact: </b>014/28.50.00</p><p><b>address: </b>Oud-Strijderslaan 199 2200 Herentals BE</p></div>"},"identifier":[{"use":"official","system":"https://www.ehealth.fgov.be/standards/fhir/NamingSystem/nihdi","value":"68071432800"}],"name":[{"use":"official","family":"Engelen","given":["Frans"]}],"telecom":[{"system":"phone","value":"014/28.50.00","use":"work"}],"address":[{"use":"work","type":"both","line":["Oud-Strijderslaan 199"],"city":"Herentals","postalCode":"2200","country":"BE"}],"gender":"unknown"}},{"fullUrl":"Patient/6388178","resource":{"resourceType":"Patient","id":"6388178","meta":{"profile":["https://www.ehealth.fgov.be/standards/fhir/StructureDefinition/be-patient"]},"text":{"status":"generated","div":"<div xmlns=\"http://www.w3.org/1999/xhtml\"><p><b>identifier: </b>01482105560</p><p><b>name: </b>Cozo-Een Testvoornaam</p><p><b>gender: </b>male</p><p><b>birthDate: </b>1901-08-21</p><p><b>address: </b>De Pintelaan 185 9000 Gent BE</p></div>"},"identifier":[{"use":"official","system":"https://www.ehealth.fgov.be/standards/fhir/NamingSystem/ssin","value":"01482105560"}],"active":true,"name":[{"use":"official","family":"Cozo-Een","given":["Testvoornaam"]}],"address":[{"use":"home","type":"both","line":["De Pintelaan 185"],"city":"Gent","postalCode":"9000","country":"BE"}],"gender":"male","birthDate":"1901-08-21"}},{"fullUrl":"ServiceRequest/815333052","resource":{"resourceType":"ServiceRequest","id":"815333052","text":{"status":"generated","div":"<div xmlns=\"http://www.w3.org/1999/xhtml\"><p><b>id: </b>815333052</p><p><b>intent: </b>order</p><p><b>status: </b>active</p><p><b>category: </b>http://snomed.info/sct 108252007 Laboratory procedure</p><p><b>subject: </b>Patient/6388178</p><p><b>requester: </b>Practitioner/8152</p><p><b>authoredOn: </b>2021-12-07T09:29:00+01:00</p></div>"},"identifier":[{"system":"http://www.macsys.be/hl7/ServiceRequest","value":"815333052"}],"status":"active","intent":"order","category":[{"coding":[{"system":"http://snomed.info/sct","code":"108252007","display":"Laboratory procedure"}]}],"subject":{"reference":"Patient/6388178"},"priority":"routine","authoredOn":"2021-12-07T09:29:00+01:00","requester":{"reference":"Practitioner/8152"}}}]}