<?xml version="1.0" encoding="UTF-8"?>
<Bundle xmlns="http://hl7.org/fhir" xmlns:xsi="http://www.w3.org/2001/XMLSchema-instance" xsi:schemaLocation="http://hl7.org/fhir file:///H:/OLD_DESKTOP/Desktop/LATEST%20AND%20GREATEST/FHIR4/bundle.xsd">
	<id value="HematologyStudiesAsBundleCollectionSentAsPreformattedText"/>
	<type value="collection"/>
	<!--This example is presented as a Collection bundle for ease of understanding. It makes no assumption towards any final implementation of using FHIR technically. Open this as XML to view XML annotations.-->
	<entry>
		<fullUrl value="urn:uuid:7c16c9c0-c471-4098-ae18-48abcadd8d34"/>
		<resource>
			<DiagnosticReport>
				<id value="diagnosticreport2"/>
				<meta>
				<versionId value="1"/>
					<!--  the be-report SHALL claim conformance to the be-profile  -->
					<profile value="https://www.ehealth.fgov.be/standards/fhir/StructureDefinition/be-laboratory-report"/>
				</meta>
				<!--  the be-report SHALL have 1 language. The base language in which the resource is written. The base language in which the resource is written, typically this will be fr-BE, nl-BE, en or de. It is RECOMMENDED to only declare the language here.  -->
				<language value="be-nl"/>
				<text>
					<!--  the be-report SHALL have 1 text. A human-readable narrative that contains a summary of the resource and can be used to represent the content of the resource to a human. The narrative need not encode all the structured data, but is required to contain sufficient detail to make it "clinically safe" for a human to just read the narrative.  -->
					<status value="generated"/>
					<div xmlns="http://www.w3.org/1999/xhtml"  lang="be-nl" xml:lang="be-nl">
						<p>This example is presented as a Collection bundle for ease of understanding. It makes no assumption towards any final implementation of using FHIR technically. </p>
						<p>Download and open this as XML in an editor to view XML annotations.</p>
						<p>ALL LOINC, SNOMED-CT CODES ETC. ARE USED FOR ILLUSTRATIVE PURPOSES AND DO NOT NECESSARILY PRESENT A CLINICALLY CORRECT REAL LIFE LABORATORY REPORT</p>
						<h2>A narrative SHALL be included</h2>
						<p>Specifically, the strong recommendation of HL7 concerning the use of the narrative &quot;to support human-consumption as a fallback&quot; is important in the context of the laboratory report. Indeed, this &quot;human-consumption&quot; aspect actually concerns the inclusion of limited xhtml content and as such an effortless implementation to visualize the content of the report by consuming systems is guarantueed. Also, for systems that might not initially choose to consume reports in a structured way, this guarantuees a way to at least visualize and present the content to the user.</p>
			</div></text>

				<identifier>
					<!--Here SHALL be a business identifier to identify the report. "Need to know what identifier to use when making queries about this report from the source laboratory"-->
					<system value="http://acme.com/lab/reports"/>
					<value value="11530231003.2015110413180000000"/>
					
				</identifier>
				<basedOn>
					<!-- The time of the prescription lives in the original ServiceRequest resource and SHALL be  referenced here. The time of the prescription lives in the ServiceRequest.authoredOn element. -->
					<reference value="ServiceRequest/servicerequest1"/>
					<!-- Note, within the Observation resource it is possible to define they were defined on a different serviceRequest (e.g. to clarify it was a sub ordering)) -->
				</basedOn>
				<!-- The status SHALL be given. As per the base FHIR resource, this can be registered,partial,preliminary,final,	amended, corrected, appended,cancelled,entered-in-error or	unknown. Naturally, the status on this level SHALL be logical according to the status of any individual Observation and possibly Specimen -->
				<status value="final"/>
				<category>
					<coding>
						<!-- The generic 'LAB' category SHALL be given as per the base FHIR specification. If needed, extra categories can be added to further categorize the report  -->
						<!-- QUESTION: DO WE NEED TO PROVIDE A LIMITED LIST HERE FOR EXTRA CATEGORIES? -->
						<system value="http://terminology.hl7.org/CodeSystem/v2-0074"/>
						<code value="LAB"/>
						<display value="Laboratory"/>
					</coding>
				</category>
				<code>
					<!--  Here, one code SHALL be given - preferred is a LOINC code -  that describes what this report is actually about.  -->
					<!-- QUESTION: DO WE NEED TO PROVIDE A LIMITED LIST HERE FOR CATEGORIES? 
e.g. the one from the CDA format?
18717-9 BLOOD BANK STUDIES
18718-7 CELL MARKER STUDIES
18719-5 CHEMISTRY STUDIES
18720-3 COAGULATION STUDIES
18721-1 THERAPEUTIC DRUG MONITORING STUDIES
18722-9 FERTILITY STUDIES
18723-7 HEMATOLOGY STUDIES
18724-5 HLA STUDIES
18725-2 MICROBIOLOGY STUDIES
18727-8 SEROLOGY STUDIES
18728-6 TOXICOLOGY STUDIES
18729-4 URINALYSIS STUDIES
18767-4 BLOOD GAS STUDIES
18768-2 CELL COUNTS+DIFFERENTIAL STUDIES
18769-0 MICROBIAL SUSCEPTIBILITY TESTS
26435-8 MOLECULAR PATHOLOGY STUDIES
26436-6 LABORATORY STUDIES
26437-4 CHEMISTRY CHALLENGE STUDIES
26438-2 CYTOLOGY STUDIES
Notes:
The choice of what observations to categorize under what specialty are left ultimately to the discretion of the laboratory sending the results. Some non-restrictive guidelines:
o 18721-1 (THERAPEUTIC DRUG MONITORING STUDIES) will be used for a section carrying pharmacologyobservations on a patient.
o Mycology and parasitology, as well as bacteriology, are part of the 18725-2 (MICROBIOLOGY STUDIES) specialty.
o 665 Virology MAY be included in 18725-2 (MICROBIOLOGY STUDIES) specialty or 18727-8 (SEROLOGY STUDIES)or split between both specialties, depending upon the Content Creator Actor’s choice
-->
					<coding>
						<system value="http://loinc.org"/>
						<code value="18769-0"/>
						<display value="Microbial susceptibility tests"/>
					</coding>
				</code>
				<subject>
					<!--  Here, the subject SHALL be given - normally, this will be a patient. As per the FHIR Reference datatype (that also applies to other parts in this message when a Reference datatype is used) when Patient is available on a server, a URL may be given but it is also possible here to give e.g. the SSIN business identifier for a patient. In this bundle example, this is a reference to the entry in this bundle that contains this patient. -->
					<reference value="Patient/patient1"/>
				</subject>
				<!--- ATTENTION: the effectiveDateTime (OR effectivePeriod) element is defined by FHIR as "The time or time-period the observed values are related to. When the subject of the report is a patient, this is normally the time of specimen collection(s)" As such, this is OPTIONAL and SHALL NOT be confused with the next element .issued-->
				<effectiveDateTime value="2015-11-03T13:18:00+01:00"/>
				<!--- ATTENTION: the .issued element is defined by FHIR as "The date and time that this version of the report was made available to providers, typically after the report was reviewed and verified.." As such, this is MANDATORY and SHALL NOT be confused with the previous element .effectiveDateTime or effectivePeriod-->
				<issued value="2015-11-04T13:18:00+01:00"/>
				<performer>
					<!--  performer is given 1..* and will be typically a laboratory  -->
					<reference value="Organization/organization10"/>
				</performer>
				<resultsInterpreter>
					<!--  resultsinterpreter is given 1..* and will be typically a person. Need to know whom to contact if there are queries about the results. -->
					<reference value="Practitioner/practitioner11"/>
				</resultsInterpreter>
				<specimen>
					<!-- OPTIONAL include 0..* specimen (in certain cases, referring to specimen explicetely is considerd redundant in laboratort reporting) -->
					<reference value="Specimen/specimen1"/>
				</specimen>
				<result>
					<!-- Here follow the 1..* result that make up this report -->
					<!-- In this case, this Observation20 is a preformatted text observation  -->
					<reference value="Observation/observation10"/>
				</result>
				<!--OPTIONAL include here any conclusion using .conclusion or .conclusionCode -->
				<conclusion value="This is our conclusion"></conclusion>
			</DiagnosticReport>
		</resource>
	</entry>
	<entry>
		<fullUrl value="urn:uuid:7c16c9c0-c471-4098-ae18-48abcadd8d35"/>
		<resource>
			<Specimen>
				<!-- the other resources use the id to refer to this specimen  -->
				<id value="specimen1"/>
			
				<identifier>
					<!-- Business identifier of the specimen SHOULD BE included if available -->
					<system value="https://www.GTL-LABO.be/"/>
					<value value="1"/>
				</identifier>
				<!--  OPTIONAL status code of a Specimen available | unavailable | unsatisfactory | entered-in-error  Functionally, this status SHALL be logical when considered with the status of the report and/or the status of the Observation using this specimen-->
				<status value="available"/>
				<type>
					<coding>
						<!--  The actual specimen, described using a coding system. Here, the coding system SNOMED-CT is used for this which is RECOMMENDED for specimen. As a general back-up rule, whenever the laboratory does use a propriety code, a .text element SHALL always be included explaining the code.  -->
						<system value="http://snomed.info/sct"/>
						<code value="119297000"/>
						<display value="Blood specimen"/>
					</coding>
					<text value="A string can be added to nuance or explain."/>
				</type>
				<!--  The date/time when the specimen was received SHOULD be included if available  -->
				<receivedTime value="2015-11-04"/>
				<collection>
					<!--  The date/time when the specimen was collected SHOULD be included if available  -->
					<collectedDateTime value="2015-11-03"/>
					<method>
						<!-- OPTIONAL provide the method of collection -->
						<coding>
							<system value="http://snomed.info/sct"/>
							<code value="28520004"/>
							<display value="Venipuncture for blood test (procedure)"/>
						</coding>
					</method>
					<bodySite>
						<!-- OPTIONAL provide the bodySite. Here, a SNOMED-CT code is used. Alternatively, express this using the .text element of the CodeableConcept datatype. -->
						<coding>
							<system value="http://snomed.info/sct"/>
							<code value="368208006"/>
							<display value="Left upper arm structure (body structure)"/>
						</coding>
					</bodySite>
				</collection>
				<note>
					<!--  OPTIONAL, any note concerning the specimen. Using the Annotation datatype in FHIR, it is OPTIONAL here to also add an author and/or dateTime of this annotation  -->
					<text value="Some extra relevant information concerning the specimen"/>
				</note>
			</Specimen>
		</resource>
	</entry>
	<entry>
		<fullUrl value="urn:uuid:7c16c9c0-c471-4098-ae18-48abcadd8d36"/>
		<resource>
			<Observation>
				<id value="observation20"/>
				<meta>
					<profile value="https://www.ehealth.fgov.be/standards/fhir/StructureDefinition/be-observation-laboratory"/>
				</meta>
			<text>
	<status value="additional"/>
					<div xmlns="http://www.w3.org/1999/xhtml"  lang="be-nl" xml:lang="be-nl">
						<pre>Staal Specificatie                          peroperatief staal
  Staal Specificatie                          abdominaal vocht    				Val 
  Gramkleuring                                WBC +- gram-negatieve staven +++
                                               gram+ coccen +					Val 
  Kweek (isolaten, ABgram...)                 1: : Klebsiella pneumoniae +++
                                              2: : Enterococcus faecium +
                                              3: : Streptococcus mitis groep +			Val 
  Antibiogram                                                          1   2   3
                                              Ampicilline/Amoxicilline R   R   I
                                              Cotrimoxazol             S
                                              Vancomycine                  S   S
                                              Clindamycine                     S
                                              Nitrofurantoine          S
                                              Cefuroxim                S
                                              Gentamycine              S
                                              Colimycine               S
                                              Temocilline              S
                                              Fosfomycine              S
                                              Ofloxacine/levofloxacine S
                                              Amoxy-clavulaanzuur      S
                                              Amikacine                S
                                              Piperacilline/tazobactam S
                                              Cefotaxim/ceftriaxone    S
                                              Ceftazidime              S
                                              Meropenem                S</pre>
						
					
					
					</div>

				
	
			</text>
				<!--  MANDATORY status code of the Observation registered, preliminary, final, amended, corrected, cancelled, entered-in-error, unknown  Functionally, this status SHALL be logical when considered with the status of the report and/or the status of the Specimen used by this observation-->
				<status value="final"/>
				<!--  MANDATORY -->
				<code>
		<text value="The observation is given as preformatted text in the narrative"/>
				</code>
				<subject>
					<reference value="Patient/patient1"/>
				</subject>
				<!--OPTIONAL the effectiveDateTime OR effectivePeriod OR effectiveTiming OR effectiveInstant reflects the "The time or time-period the observed value is asserted as being true. For biological subjects - e.g. human patients - this is usually called the "physiologically relevant time". This is usually either the time of the procedure or of specimen collection, but very often the source of the date/time is not known, only the date/time itself." Note also, the next element .issued -->
				<effectiveDateTime value="2015-11-04T09:16:00-05:00"/>
				<!--OPTIONAL the issued instant."The date and time this version of the observation was made available to providers, typically after the results have been reviewed and verified." Note also, the previous element -->
				<issued value="2015-11-04T09:16:00-05:00"/>
				<performer>
					<reference value="Practitioner/practitioner1"/>
				</performer>


			
			</Observation>
		</resource>
	</entry>
	


	<entry>
		<fullUrl value="urn:uuid:7c16c9c0-c471-4098-ae18-48abcadd8d40"/>
		<resource>
			<Organization>
				<id value="organization10"/>
				<meta>
					<profile value="https://www.ehealth.fgov.be/standards/fhir/StructureDefinition/be-organization"/>
				</meta>

				<identifier>
					<use value="official"/>
					<type>
						<coding>
							<system value="http://terminology.hl7.org/CodeSystem/v2-0203"/>
							<code value="MD"/>
							<display value="Medical License number"/>
						</coding>
					</type>
					<system value="https://www.ehealth.fgov.be/standards/fhir/NamingSystem/nihdi"/>
					<value value="81165343998"/>
				</identifier>
				<active value="true"/>
				<type>
					<coding>
						<system value="https://www.ehealth.fgov.be/standards/fhir/CodeSystem/cd-hcparty"/>
						<code value="orglaboratory"/>
					</coding>
				</type>
				<name value="GTL - General Testing Laboratory"/>
				<telecom>
					<system value="phone"/>
					<value value="322675199"/>
					<use value="work"/>
				</telecom>
				<address>
					<extension url="http://hl7.org/fhir/StructureDefinition/language">
						<valueCode value="nl"/>
					</extension>
					<use value="work"/>
					<type value="both"/>
					<text value="Vulcansstraat 120, 1000 Brussel"/>
					<line value="Vulcansstraat 120">
						<extension url="http://hl7.org/fhir/StructureDefinition/iso21090-ADXP-streetName">
							<valueString value="Vulcansstraat"/>
						</extension>
						<extension url="http://hl7.org/fhir/StructureDefinition/iso21090-ADXP-houseNumber">
							<valueString value="120"/>
						</extension>
					</line>
					<city value="Brussel"/>
					<postalCode value="1000"/>
					<country value="BE"/>
				</address>
			</Organization>
		</resource>
	</entry>
	<entry>
		<fullUrl value="urn:uuid:7c16c9c0-c471-4098-ae18-48abcadd8d41"/>
		<resource>
			<Practitioner>
				<id value="practitioner11"/>
				<meta>
					<profile value="https://www.ehealth.fgov.be/standards/fhir/StructureDefinition/be-practitioner"/>
				</meta>
				<identifier>
					<use value="official"/>
					<system value="https://www.ehealth.fgov.be/standards/fhir/NamingSystem/nihdi"/>
					<value value="554488997"/>
				</identifier>
				<name>
					<use value="official"/>
					<family value="Davoust"/>
					<given value="Nicolas"/>
				</name>
				<telecom>
					<system value="email"/>
					<value value="nicolas.davoust@gtl.be"/>
					<use value="work"/>
				</telecom>
				<telecom>
					<system value="phone"/>
					<value value="022675198"/>
					<use value="work"/>
				</telecom>
				<telecom>
					<system value="fax"/>
					<value value="022675209"/>
					<use value="work"/>
				</telecom>
			</Practitioner>
		</resource>
	</entry>
	<entry>
		<fullUrl value="urn:uuid:7c16c9c0-c471-4098-ae18-48abcadd8d42"/>
		<resource>
			<Patient xmlns="http://hl7.org/fhir">
				<id value="patient1"/>
				<meta>
					<profile value="https://www.ehealth.fgov.be/standards/fhir/StructureDefinition/be-patient"/>
				</meta>
				<identifier>
					<use value="official"/>
					<system value="https://www.ehealth.fgov.be/standards/fhir/NamingSystem/ssin"/>
					<value value="79121137740"/>
				</identifier>
				<active value="true"/>
				<name>
					<family value="La Paradisio"/>
					<given value="Josephine"/>
					<given value="Nessa"/>
				</name>
				<telecom>
					<system value="email"/>
					<value value="nessa.laparadisio@belgium.be"/>
				</telecom>
				<telecom>
					<system value="phone"/>
					<value value="+322476792979"/>
					<use value="mobile"/>
				</telecom>
				<telecom>
					<system value="phone"/>
					<value value="+3226718655"/>
					<use value="home"/>
				</telecom>
				<telecom>
					<system value="phone"/>
					<value value="+322476799"/>
					<use value="work"/>
				</telecom>
				<gender value="female"/>
				<birthDate value="1979-12-11">
					<extension url="http://hl7.org/fhir/StructureDefinition/patient-birthTime">
						<valueDateTime value="1979-12-11T13:28:17-05:00"/>
					</extension>
				</birthDate>
				<address>
					<use value="home"/>
					<type value="both"/>
					<text value="Sloordelle 42, 1160 Oudergem"/>
					<line value="Sloordelle 42"/>
					<city value="Oudergem"/>
					<postalCode value="1160"/>
					<country value="BE"/>
				</address>
			</Patient>
		</resource>
	</entry>
	<entry>
		<fullUrl value="urn:uuid:7c16c9c0-c471-4098-ae18-48abcadd8d43"/>
		<resource>
			<ServiceRequest xmlns="http://hl7.org/fhir">
				<id value="servicerequest1"/>
				<identifier>
					<!--The original order number -->
					<system value="https://www.GTL-LABO.be/orderingsystem"/>
					<value value="12334546"/>
				</identifier>
				<status value="active"/>
				<intent value="order"/>
				<category>
					<coding>
						<system value="http://snomed.info/sct"/>
						<code value="108252007"/>
						<display value="Laboratory procedure"/>
					</coding>
				</category>
				<subject>
					<reference value="Patient/patient1"/>
				</subject>
				<authoredOn value="2015-11-01T14:41:00+01:00"/>
				<requester>
					<!--in case of sub orders, the requester might also be a laboratory -->
					<reference value="Practitioner/practitioner1"/>
				</requester>
				<specimen>
					<reference value="Specimen/specimen1"/>
				</specimen>
			</ServiceRequest>
		</resource>
	</entry>
	<entry>
		<fullUrl value="urn:uuid:7c16c9c0-c471-4098-ae18-48abcadd8d44"/>
		<resource>
			<Practitioner xmlns="http://hl7.org/fhir">
				<id value="practitioner1"/>
				<meta>
					<profile value="https://www.ehealth.fgov.be/standards/fhir/StructureDefinition/be-practitioner"/>
				</meta>
				<identifier>
					<use value="official"/>
					<system value="https://www.ehealth.fgov.be/standards/fhir/NamingSystem/nihdi"/>
					<value value="18749704477"/>
				</identifier>
				<name>
					<use value="official"/>
					<family value="Pulaski"/>
					<given value="Katherine"/>
					<suffix value="MD"/>
				</name>
				<telecom>
					<system value="email"/>
					<value value="katherine.pulaski@enterprisehospital.be"/>
					<use value="work"/>
				</telecom>
				<telecom>
					<system value="phone"/>
					<value value="022675198"/>
					<use value="work"/>
				</telecom>
				<telecom>
					<system value="fax"/>
					<value value="022675209"/>
					<use value="work"/>
				</telecom>
				<address>
					<use value="home"/>
					<text value="Jupiterlaan 5, 1853 Grimbergen"/>
					<line value="Jupiterlaan 5"/>
					<city value="Grimbergen"/>
					<postalCode value="1853"/>
					<country value="BE"/>
				</address>
			</Practitioner>
		</resource>
	</entry>
</Bundle>
