<?xml version="1.0" encoding="UTF-8"?>
<Bundle xmlns="http://hl7.org/fhir" xmlns:xsi="http://www.w3.org/2001/XMLSchema-instance" xsi:schemaLocation="http://hl7.org/fhir file:///H:/OLD_DESKTOP/Desktop/LATEST%20AND%20GREATEST/FHIR4/bundle.xsd">
	<id value="AntibiogramAsFHIRDocumentSentAsPreformattedText"/>
	<!--As an example, the diagnosticReport is presented here in the form of a FHIR document. "FHIR resources can be used to build documents that represent a composition: a coherent set of information that is a statement of healthcare information, including clinical observations and services. A document is an immutable set of resources with a fixed presentation that is authored and/or attested by humans, organizations and devices." (http://hl7.org/fhir/R4/documents.html) -->
	<identifier>
		<!-- A persistent identifier for the bundle that won't change as a bundle is copied from server to server.(https://www.hl7.org/fhir/bundle-definitions.html#Bundle.identifier )-->
		<system value="urn:ietf:rfc:3986"/>
		<value value="urn:uuid:0c3151bd-1cbf-4d64-b04d-cd9187a4c7e0"/>
	</identifier>
	<type value="document"/>
	<entry>
		<!--A FHIR document always starts with the FHIR Composition resource -->
		<fullUrl value="urn:uuid:7c16c9c0-c471-4020-ae18-48abcadd8d34"/>
		<resource>
			<Composition>
				<id value="7c16c9c0-c471-4020-ae18-48abcadd8d34"/>
					<identifier>
		<!-- A persistent identifier for the DOCUMENT. If a new DOCUMENT is sent that replaces this one, this identifier will REMAIN THE SAME-->
		<system value="urn:ietf:rfc:3986"/>
		<value value="urn:uuid:0c3151bd-1cbf-4d64-b04d-cd9187a4c7e0"/>
	</identifier>
				<status value="final"/>
				<!--MANDATORY preliminary|final|amended|entered-in-error: This of course is vital to the workflow when sending lab reports as FHIR documents. -->
				<type>
					<coding>
						<system value="http://loinc.org"/>
						<code value="11502-2"/>
						<display value="Laboratory report"/>
					</coding>
				</type>
				<date value="2015-11-03T13:18:00+01:00"/>
		
				<author>
					<reference value="Practitioner/practitioner11"/>
				</author>
				<title value="Report"></title>
			</Composition>
		</resource>
	</entry>
	<entry>
		<fullUrl value="urn:uuid:7c16c9c0-c471-4098-ae18-48abcadd8d34"/>
		<resource>
			<DiagnosticReport>
				<id value="diagnosticreport20"/>
				<meta>
					<versionId value="1"/>
					<profile value="https://www.ehealth.fgov.be/standards/fhir/StructureDefinition/be-laboratory-report"/>
				</meta>
				<language value="be-nl"/>
				<text>
					<status value="generated"/>
					<div xmlns="http://www.w3.org/1999/xhtml" lang="be-nl" xml:lang="be-nl">
						<p>This example is presented as a Collection bundle for ease of understanding. It makes no assumption towards any final implementation of using FHIR technically. </p>
						<p>Download and open this as XML in an editor to view XML annotations.</p>
						<p>ALL LOINC, SNOMED-CT CODES ETC. ARE USED FOR ILLUSTRATIVE PURPOSES AND DO NOT NECESSARILY PRESENT A CLINICALLY CORRECT REAL LIFE LABORATORY REPORT</p>
						<h2>A narrative SHALL be included</h2>
						<p>Specifically, the strong recommendation of HL7 concerning the use of the narrative &quot;to support human-consumption as a fallback&quot; is important in the context of the laboratory report. Indeed, this &quot;human-consumption&quot; aspect actually concerns the inclusion of limited xhtml content and as such an effortless implementation to visualize the content of the report by consuming systems is guarantueed. Also, for systems that might not initially choose to consume reports in a structured way, this guarantuees a way to at least visualize and present the content to the user.</p>
					</div>
				</text>
				<identifier>
					<system value="http://acme.com/lab/reports"/>
					<value value="11530231003.2015110413180000000"/>
				</identifier>
				<basedOn>
					<reference value="ServiceRequest/servicerequest1"/>
				</basedOn>
				<status value="final"/>
				<category>
					<coding>
						<system value="http://terminology.hl7.org/CodeSystem/v2-0074"/>
						<code value="LAB"/>
						<display value="Laboratory"/>
					</coding>
				</category>
				<code>
					<coding>
						<system value="http://loinc.org"/>
						<code value="18769-0"/>
						<display value="Microbial susceptibility tests Set"/>
					</coding>
					<text value="Microbial susceptibility tests"/>
				</code>
				<subject>
					<reference value="Patient/patient1"/>
				</subject>
				<effectiveDateTime value="2015-11-03T13:18:00+01:00"/>
				<issued value="2015-11-04T13:18:00+01:00"/>
				<performer>
					<reference value="Organization/organization10"/>
				</performer>
				<resultsInterpreter>
					<reference value="Practitioner/practitioner11"/>
				</resultsInterpreter>
				<result>
					<!-- Here follow the 1..* result that make up this report -->
					<!-- In this case, this Observation20 is a preformatted text observation  -->
					<reference value="Observation/observation20"/>
				</result>
				<conclusion value="This is our conclusion"/>
			</DiagnosticReport>
		</resource>
	</entry>
	<entry>
		<fullUrl value="urn:uuid:7c16c9c0-c471-4098-ae18-48abcadd8d36"/>
		<resource>
			<Observation>
				<id value="observation20"/>
				<meta>
					<profile value="https://www.ehealth.fgov.be/standards/fhir/StructureDefinition/be-observation-laboratory"/>
				</meta>
				<text>
					<status value="additional"/>
					<div xmlns="http://www.w3.org/1999/xhtml" lang="be-nl" xml:lang="be-nl">
						<pre>Staal Specificatie                          peroperatief staal
  Staal Specificatie                          abdominaal vocht    				Val 
  Gramkleuring                                WBC +- gram-negatieve staven +++
                                               gram+ coccen +					Val 
  Kweek (isolaten, ABgram...)                 1: : Klebsiella pneumoniae +++
                                              2: : Enterococcus faecium +
                                              3: : Streptococcus mitis groep +			Val 
  Antibiogram                                                          1   2   3
                                              Ampicilline/Amoxicilline R   R   I
                                              Cotrimoxazol             S
                                              Vancomycine                  S   S
                                              Clindamycine                     S
                                              Nitrofurantoine          S
                                              Cefuroxim                S
                                              Gentamycine              S
                                              Colimycine               S
                                              Temocilline              S
                                              Fosfomycine              S
                                              Ofloxacine/levofloxacine S
                                              Amoxy-clavulaanzuur      S
                                              Amikacine                S
                                              Piperacilline/tazobactam S
                                              Cefotaxim/ceftriaxone    S
                                              Ceftazidime              S
                                              Meropenem                S</pre>
					</div>
				</text>
				<status value="final"/>
				<code>
					<text value="The observation is given as preformatted text in the narrative"/>
				</code>
				<subject>
					<reference value="Patient/patient1"/>
				</subject>
				<effectiveDateTime value="2015-11-04T09:16:00-05:00"/>
				<issued value="2015-11-04T09:16:00-05:00"/>
				<performer>
					<reference value="Practitioner/practitioner11"/>
				</performer>
			</Observation>
		</resource>
	</entry>
	<entry>
		<fullUrl value="urn:uuid:7c16c9c0-c471-4098-ae18-48abcadd8d40"/>
		<resource>
			<Organization>
				<id value="organization10"/>
				<meta>
					<profile value="https://www.ehealth.fgov.be/standards/fhir/StructureDefinition/be-organization"/>
				</meta>
				<identifier>
					<use value="official"/>
					<type>
						<coding>
							<system value="http://terminology.hl7.org/CodeSystem/v2-0203"/>
							<code value="MD"/>
							<display value="Medical License number"/>
						</coding>
					</type>
					<system value="https://www.ehealth.fgov.be/standards/fhir/NamingSystem/nihdi"/>
					<value value="81165343998"/>
				</identifier>
				<active value="true"/>
				<type>
					<coding>
						<system value="https://www.ehealth.fgov.be/standards/fhir/CodeSystem/cd-hcparty"/>
						<code value="orglaboratory"/>
					</coding>
				</type>
				<name value="GTL - General Testing Laboratory"/>
				<telecom>
					<system value="phone"/>
					<value value="322675199"/>
					<use value="work"/>
				</telecom>
				<address>
					<extension url="http://hl7.org/fhir/StructureDefinition/language">
						<valueCode value="nl"/>
					</extension>
					<use value="work"/>
					<type value="both"/>
					<text value="Vulcansstraat 120, 1000 Brussel"/>
					<line value="Vulcansstraat 120">
						<extension url="http://hl7.org/fhir/StructureDefinition/iso21090-ADXP-streetName">
							<valueString value="Vulcansstraat"/>
						</extension>
						<extension url="http://hl7.org/fhir/StructureDefinition/iso21090-ADXP-houseNumber">
							<valueString value="120"/>
						</extension>
					</line>
					<city value="Brussel"/>
					<postalCode value="1000"/>
					<country value="BE"/>
				</address>
			</Organization>
		</resource>
	</entry>
	<entry>
		<fullUrl value="urn:uuid:7c16c9c0-c471-4098-ae18-48abcadd8d41"/>
		<resource>
			<Practitioner>
				<id value="practitioner11"/>
				<meta>
					<profile value="https://www.ehealth.fgov.be/standards/fhir/StructureDefinition/be-practitioner"/>
				</meta>
				<identifier>
					<use value="official"/>
					<system value="https://www.ehealth.fgov.be/standards/fhir/NamingSystem/nihdi"/>
					<value value="554488997"/>
				</identifier>
				<name>
					<use value="official"/>
					<family value="Davoust"/>
					<given value="Nicolas"/>
				</name>
				<telecom>
					<system value="email"/>
					<value value="nicolas.davoust@gtl.be"/>
					<use value="work"/>
				</telecom>
				<telecom>
					<system value="phone"/>
					<value value="022675198"/>
					<use value="work"/>
				</telecom>
				<telecom>
					<system value="fax"/>
					<value value="022675209"/>
					<use value="work"/>
				</telecom>
			</Practitioner>
		</resource>
	</entry>
	<entry>
		<fullUrl value="urn:uuid:7c16c9c0-c471-4098-ae18-48abcadd8d42"/>
		<resource>
			<Patient xmlns="http://hl7.org/fhir">
				<id value="patient1"/>
				<meta>
					<profile value="https://www.ehealth.fgov.be/standards/fhir/StructureDefinition/be-patient"/>
				</meta>
				<identifier>
					<use value="official"/>
					<system value="https://www.ehealth.fgov.be/standards/fhir/NamingSystem/ssin"/>
					<value value="79121137740"/>
				</identifier>
				<active value="true"/>
				<name>
					<family value="La Paradisio"/>
					<given value="Josephine"/>
					<given value="Nessa"/>
				</name>
				<telecom>
					<system value="email"/>
					<value value="nessa.laparadisio@belgium.be"/>
				</telecom>
				<telecom>
					<system value="phone"/>
					<value value="+322476792979"/>
					<use value="mobile"/>
				</telecom>
				<telecom>
					<system value="phone"/>
					<value value="+3226718655"/>
					<use value="home"/>
				</telecom>
				<telecom>
					<system value="phone"/>
					<value value="+322476799"/>
					<use value="work"/>
				</telecom>
				<gender value="female"/>
				<birthDate value="1979-12-11">
					<extension url="http://hl7.org/fhir/StructureDefinition/patient-birthTime">
						<valueDateTime value="1979-12-11T13:28:17-05:00"/>
					</extension>
				</birthDate>
				<address>
					<use value="home"/>
					<type value="both"/>
					<text value="Sloordelle 42, 1160 Oudergem"/>
					<line value="Sloordelle 42"/>
					<city value="Oudergem"/>
					<postalCode value="1160"/>
					<country value="BE"/>
				</address>
			</Patient>
		</resource>
	</entry>
	<entry>
		<fullUrl value="urn:uuid:7c16c9c0-c471-4098-ae18-48abcadd8d43"/>
		<resource>
			<ServiceRequest xmlns="http://hl7.org/fhir">
				<id value="servicerequest1"/>
				<identifier>
					<!--The original order number -->
					<system value="https://www.GTL-LABO.be/orderingsystem"/>
					<value value="12334546"/>
				</identifier>
				<status value="active"/>
				<intent value="order"/>
				<category>
					<coding>
						<system value="http://snomed.info/sct"/>
						<code value="108252007"/>
						<display value="Laboratory procedure"/>
					</coding>
				</category>
				<subject>
					<reference value="Patient/patient1"/>
				</subject>
				<authoredOn value="2015-11-01T14:41:00+01:00"/>
				<requester>
					<!--in case of sub orders, the requester might also be a laboratory -->
					<reference value="Practitioner/practitioner1"/>
				</requester>
			</ServiceRequest>
		</resource>
	</entry>
	<entry>
		<fullUrl value="urn:uuid:7c16c9c0-c471-4098-ae18-48abcadd8d44"/>
		<resource>
			<Practitioner xmlns="http://hl7.org/fhir">
				<id value="practitioner1"/>
				<meta>
					<profile value="https://www.ehealth.fgov.be/standards/fhir/StructureDefinition/be-practitioner"/>
				</meta>
				<identifier>
					<use value="official"/>
					<system value="https://www.ehealth.fgov.be/standards/fhir/NamingSystem/nihdi"/>
					<value value="18749704477"/>
				</identifier>
				<name>
					<use value="official"/>
					<family value="Pulaski"/>
					<given value="Katherine"/>
					<suffix value="MD"/>
				</name>
				<telecom>
					<system value="email"/>
					<value value="katherine.pulaski@enterprisehospital.be"/>
					<use value="work"/>
				</telecom>
				<telecom>
					<system value="phone"/>
					<value value="022675198"/>
					<use value="work"/>
				</telecom>
				<telecom>
					<system value="fax"/>
					<value value="022675209"/>
					<use value="work"/>
				</telecom>
				<address>
					<use value="home"/>
					<text value="Jupiterlaan 5, 1853 Grimbergen"/>
					<line value="Jupiterlaan 5"/>
					<city value="Grimbergen"/>
					<postalCode value="1853"/>
					<country value="BE"/>
				</address>
			</Practitioner>
		</resource>
	</entry>
</Bundle>
