<?xml version="1.0" encoding="UTF-8"?>
<Bundle xmlns="http://hl7.org/fhir" xmlns:xsi="http://www.w3.org/2001/XMLSchema-instance" >
	<id value="antibiogramIsNegativeAsBundleCollection"/>
	<identifier> 
 <!-- A persistent identifier for the bundle that won't change as a bundle is copied from server to server.(https://www.hl7.org/fhir/bundle-definitions.html#Bundle.identifier )-->
    <system value="urn:ietf:rfc:3986"/> 
    <value value="urn:uuid:0c3201bd-1cbf-4d64-b04d-cd9187a4c6e0"/> 
  </identifier> 	
	<type value="collection"/>
	<!--This example is presented as a Collection bundle for ease of understanding. It makes no assumption towards any final implementation of using FHIR technically. Open this as XML to view XML annotations.-->
	<entry>
		<fullUrl value="urn:uuid:7c16c9c0-c471-4098-ae18-48abcadd8d90"/>
		<resource>
			<DiagnosticReport>
				<id value="diagnosticreport60"/>
				<meta>
					<versionId value="1"/>
					<profile value="https://www.ehealth.fgov.be/standards/fhir/StructureDefinition/be-laboratory-report"/>
				</meta>
				<language value="en"/>
				<text>
					<status value="generated"/>
					<div xmlns="http://www.w3.org/1999/xhtml" lang="en" xml:lang="en">
						<p>This example is presented as a Collection bundle for ease of understanding. It makes no assumption towards any final implementation of using FHIR technically. </p>
						<p>Download and open this as XML in an editor to view XML annotations.</p>
						<p>ALL LOINC, SNOMED-CT CODES ETC. ARE USED FOR ILLUSTRATIVE PURPOSES AND DO NOT NECESSARILY PRESENT A CLINICALLY CORRECT REAL LIFE LABORATORY REPORT</p>
						<h2>A narrative SHALL be included</h2>
						<p>Specifically, the strong recommendation of HL7 concerning the use of the narrative &quot;to support human-consumption as a fallback&quot; is important in the context of the laboratory report. Indeed, this &quot;human-consumption&quot; aspect actually concerns the inclusion of limited xhtml content and as such an effortless implementation to visualize the content of the report by consuming systems is guarantueed. Also, for systems that might not initially choose to consume reports in a structured way, this guarantuees a way to at least visualize and present the content to the user.</p>
						<p>The exact presentation is left at the discretion of the providing party.</p>
						<pre>Specimen			Intubation Aspirate
Macroscopic observation		Matig purulent
Culture				Commensalen +-</pre>
					</div>
				</text>
				<identifier>
					<system value="http://test.com/lab/reports"/>
					<value value="11530231003.2015110413180000000"/>
				</identifier>
				<basedOn>
					<reference value="ServiceRequest/servicerequest60"/>
				</basedOn>
				<status value="final"/>
				<category>
					<coding>
						<system value="http://terminology.hl7.org/CodeSystem/v2-0074"/>
						<code value="LAB"/>
						<display value="Laboratory"/>
					</coding>
					<coding>
						<system value="http://terminology.hl7.org/CodeSystem/v2-0074"/>
						<code value="MB"/>
						<display value="Microbiology"/>
					</coding>
				</category>
				<code>
					<coding>
						<system value="http://loinc.org"/>
						<code value="18769-0"/>
						<display value="Microbial susceptibility tests Set"/>
					</coding>
					<text value="Microbial susceptibility tests"/>
				</code>
				<subject>
					<reference value="Patient/patient1"/>
				</subject>
				<effectiveDateTime value="2015-11-03T13:18:00+01:00"/>
				<issued value="2015-11-04T13:18:00+01:00"/>
				<performer>
					<reference value="Organization/organization10"/>
				</performer>
				<resultsInterpreter>
					<reference value="Practitioner/practitioner11"/>
				</resultsInterpreter>
				<specimen>
					<reference value="Specimen/specimen60"/>
				</specimen>
				<result>
					<reference value="Observation/mac60"/>
				</result>
				<result>
					<reference value="Observation/cult60"/>
				</result>
				<conclusion value="This is our conclusion"/>
			</DiagnosticReport>
		</resource>
	</entry>
	<entry>
		<fullUrl value="urn:uuid:7c16c9c0-c471-4098-ae18-48abcadd8d91"/>
		<resource>
			<Specimen>
				<id value="specimen60"/>
				<meta>
					<versionId value="1"/>
					<profile value="https://www.ehealth.fgov.be/standards/fhir/StructureDefinition/be-specimen-laboratory"/>
				</meta>
				<identifier>
					<system value="https://www.GTL-LABO.be/"/>
					<value value="1"/>
				</identifier>
				<status value="available"/>
				<type>
					<coding>
						<system value="http://snomed.info/sct"/>
						<code value="119295008"/>
						<display value="Aspirate"/>
					</coding>
					<text value="A string can be added to nuance or explain."/>
				</type>
				<receivedTime value="2015-11-04"/>
				<note>
					<text value="Some extra relevant information concerning the specimen"/>
				</note>
			</Specimen>
		</resource>
	</entry>
	<entry>
		<fullUrl value="urn:uuid:7c16c9c0-c471-4098-ae09-48abcadd9d92"/>
		<resource>
			<Observation>
				<id value="mac60"/>
				<meta>
					<profile value="https://www.ehealth.fgov.be/standards/fhir/StructureDefinition/be-observation-laboratory"/>
				</meta>
				<status value="final"/>
				<code>
					<coding>
						<system value="http://loinc.org"/>
						<code value="74574-5"/>
						<display value="Macroscopic observation [Interpretation] in Unspecified specimen Narrative"/>
					</coding>
					<text value="Macroscopic observation"/>
				</code>
				<subject>
					<reference value="Patient/patient1"/>
				</subject>
				<effectiveDateTime value="2015-11-04T09:16:00-05:00"/>
				<issued value="2015-11-04T09:16:00-05:00"/>
				<performer>
					<reference value="Practitioner/practitioner11"/>
				</performer>
				<valueString value="matig purulent"/>
			</Observation>
		</resource>
	</entry>
	<entry>
		<fullUrl value="urn:uuid:7c16c9c0-c471-4098-ae09-48abcadd9d93"/>
		<resource>
			<Observation>
				<id value="cult60"/>
				<meta>
					<profile value="https://www.ehealth.fgov.be/standards/fhir/StructureDefinition/be-observation-laboratory"/>
				</meta>
				<status value="final"/>
				<code>
					<coding>
						<system value="http://loinc.org"/>
						<code value="43411-8"/>
						<display value="Bacteria identified in Aspirate by Culture"/>
					</coding>
					<text value="Culture"/>
				</code>
				<subject>
					<reference value="Patient/patient1"/>
				</subject>
				<effectiveDateTime value="2015-11-04T09:16:00-05:00"/>
				<issued value="2015-11-04T09:16:00-05:00"/>
				<performer>
					<reference value="Practitioner/practitioner11"/>
				</performer>
				<valueString value="Commensalen +-"/>
			</Observation>
		</resource>
	</entry>
	<entry>
		<fullUrl value="urn:uuid:7c16c9c0-c471-4098-ae18-48abcadd8d94"/>
		<resource>
			<Organization>
				<id value="organization10"/>
				<meta>
					<profile value="https://www.ehealth.fgov.be/standards/fhir/StructureDefinition/be-organization"/>
				</meta>
				<identifier>
					<use value="official"/>
					<type>
						<coding>
							<system value="http://terminology.hl7.org/CodeSystem/v2-0203"/>
							<code value="MD"/>
							<display value="Medical License number"/>
						</coding>
					</type>
					<system value="https://www.ehealth.fgov.be/standards/fhir/NamingSystem/nihdi"/>
					<value value="81165343998"/>
				</identifier>
				<active value="true"/>
				<type>
					<coding>
						<system value="https://www.ehealth.fgov.be/standards/fhir/CodeSystem/cd-hcparty"/>
						<code value="orglaboratory"/>
					</coding>
				</type>
				<name value="GTL - General Testing Laboratory"/>
				<telecom>
					<system value="phone"/>
					<value value="322675199"/>
					<use value="work"/>
				</telecom>
				<address>
					<extension url="http://hl7.org/fhir/StructureDefinition/language">
						<valueCode value="nl"/>
					</extension>
					<use value="work"/>
					<type value="both"/>
					<text value="Vulcansstraat 120, 1000 Brussel"/>
					<line value="Vulcansstraat 120">
						<extension url="http://hl7.org/fhir/StructureDefinition/iso21090-ADXP-streetName">
							<valueString value="Vulcansstraat"/>
						</extension>
						<extension url="http://hl7.org/fhir/StructureDefinition/iso21090-ADXP-houseNumber">
							<valueString value="120"/>
						</extension>
					</line>
					<city value="Brussel"/>
					<postalCode value="1000"/>
					<country value="BE"/>
				</address>
			</Organization>
		</resource>
	</entry>
	<entry>
		<fullUrl value="urn:uuid:7c16c9c0-c471-4098-ae18-48abcadd8d95"/>
		<resource>
			<Practitioner>
				<id value="practitioner11"/>
				<meta>
					<profile value="https://www.ehealth.fgov.be/standards/fhir/StructureDefinition/be-practitioner"/>
				</meta>
				<identifier>
					<use value="official"/>
					<system value="https://www.ehealth.fgov.be/standards/fhir/NamingSystem/nihdi"/>
					<value value="554488997"/>
				</identifier>
				<name>
					<use value="official"/>
					<family value="Davoust"/>
					<given value="Nicolas"/>
				</name>
				<telecom>
					<system value="email"/>
					<value value="nicolas.davoust@gtl.be"/>
					<use value="work"/>
				</telecom>
				<telecom>
					<system value="phone"/>
					<value value="022675198"/>
					<use value="work"/>
				</telecom>
				<telecom>
					<system value="fax"/>
					<value value="022675209"/>
					<use value="work"/>
				</telecom>
			</Practitioner>
		</resource>
	</entry>
	<entry>
		<fullUrl value="urn:uuid:7c16c9c0-c471-4098-ae18-48abcadd8d96"/>
		<resource>
			<Patient xmlns="http://hl7.org/fhir">
				<id value="patient1"/>
				<meta>
					<profile value="https://www.ehealth.fgov.be/standards/fhir/StructureDefinition/be-patient"/>
				</meta>
				<identifier>
					<use value="official"/>
					<system value="https://www.ehealth.fgov.be/standards/fhir/NamingSystem/ssin"/>
					<value value="79121137740"/>
				</identifier>
				<active value="true"/>
				<name>
					<family value="La Paradisio"/>
					<given value="Josephine"/>
					<given value="Nessa"/>
				</name>
				<telecom>
					<system value="email"/>
					<value value="nessa.laparadisio@belgium.be"/>
				</telecom>
				<telecom>
					<system value="phone"/>
					<value value="+322476792979"/>
					<use value="mobile"/>
				</telecom>
				<telecom>
					<system value="phone"/>
					<value value="+3226718655"/>
					<use value="home"/>
				</telecom>
				<telecom>
					<system value="phone"/>
					<value value="+322476799"/>
					<use value="work"/>
				</telecom>
				<gender value="female"/>
				<birthDate value="1979-12-11">
					<extension url="http://hl7.org/fhir/StructureDefinition/patient-birthTime">
						<valueDateTime value="1979-12-11T13:28:17-05:00"/>
					</extension>
				</birthDate>
				<address>
					<use value="home"/>
					<type value="both"/>
					<text value="Sloordelle 42, 1160 Oudergem"/>
					<line value="Sloordelle 42"/>
					<city value="Oudergem"/>
					<postalCode value="1160"/>
					<country value="BE"/>
				</address>
			</Patient>
		</resource>
	</entry>
	<entry>
		<fullUrl value="urn:uuid:7c16c9c0-c471-4098-ae18-48abcadd8d97"/>
		<resource>
			<ServiceRequest xmlns="http://hl7.org/fhir">
				<id value="servicerequest60"/>
				<identifier>
					<!--The original order number -->
					<system value="https://www.GTL-LABO.be/orderingsystem"/>
					<value value="12334546"/>
				</identifier>
				<status value="active"/>
				<intent value="order"/>
				<category>
					<coding>
						<system value="http://snomed.info/sct"/>
						<code value="108252007"/>
						<display value="Laboratory procedure"/>
					</coding>
				</category>
				<subject>
					<reference value="Patient/patient1"/>
				</subject>
				<authoredOn value="2015-11-01T14:41:00+01:00"/>
				<requester>
					<!--in case of sub orders, the requester might also be a laboratory -->
					<reference value="Practitioner/practitioner1"/>
				</requester>
				<specimen>
					<reference value="Specimen/specimen60"/>
				</specimen>
			</ServiceRequest>
		</resource>
	</entry>
	<entry>
		<fullUrl value="urn:uuid:7c16c9c0-c471-4098-ae18-48abcadd8d98"/>
		<resource>
			<Practitioner xmlns="http://hl7.org/fhir">
				<id value="practitioner1"/>
				<meta>
					<profile value="https://www.ehealth.fgov.be/standards/fhir/StructureDefinition/be-practitioner"/>
				</meta>
				<identifier>
					<use value="official"/>
					<system value="https://www.ehealth.fgov.be/standards/fhir/NamingSystem/nihdi"/>
					<value value="18749704477"/>
				</identifier>
				<name>
					<use value="official"/>
					<family value="Pulaski"/>
					<given value="Katherine"/>
					<suffix value="MD"/>
				</name>
				<telecom>
					<system value="email"/>
					<value value="katherine.pulaski@enterprisehospital.be"/>
					<use value="work"/>
				</telecom>
				<telecom>
					<system value="phone"/>
					<value value="022675198"/>
					<use value="work"/>
				</telecom>
				<telecom>
					<system value="fax"/>
					<value value="022675209"/>
					<use value="work"/>
				</telecom>
				<address>
					<use value="home"/>
					<text value="Jupiterlaan 5, 1853 Grimbergen"/>
					<line value="Jupiterlaan 5"/>
					<city value="Grimbergen"/>
					<postalCode value="1853"/>
					<country value="BE"/>
				</address>
			</Practitioner>
		</resource>
	</entry>
</Bundle>
