<?xml version="1.0" encoding="UTF-8"?>
<Bundle xmlns="http://hl7.org/fhir" xmlns:xsi="http://www.w3.org/2001/XMLSchema-instance" xsi:schemaLocation="http://hl7.org/fhir file:///H:/OLD_DESKTOP/Desktop/LATEST%20AND%20GREATEST/FHIR4/bundle.xsd">
	<id value="HematologyStudiesAsBundleCollection"/>
	<type value="collection"/>
	<entry>
		<fullUrl value="https://example.com/base/DiagnosticReport/1"/>
		<resource>
			<DiagnosticReport xmlns="http://hl7.org/fhir">
				<id value="diagnosticreport1"/>
				<meta>
					<!-- the be-report SHALL claim conformance to the be-profile -->
					<profile value="https://www.ehealth.fgov.be/standards/fhir/StructureDefinition/be-laboratory-report"/>
				</meta>
				<!-- the be-report SHALL have 1 language -->
				<language value="en"/>
				<text>
					<!-- the be-report SHALL have 1 text -->
					<status value="generated"/>
					<div xmlns="http://www.w3.org/1999/xhtml">
						<p>This example is presented as a Collection bundle for ease of understanding. It makes no assumption towards any final implementation of using FHIR technically. Open this as XML to view XML annotations.</p>
						<p>ALL LOINC, SNOMED-CT CODES ETC. ARE USED FOR ILLUSTRATIVE PURPOSES AND DO NOT NECESSARILY PRESENT A REAL LIFE LABORATORY REPORT</p>
						<h2>A narrative SHALL be included</h2>
						<p>Specifically, the strong recommendation of HL7 concerning the use of the narrative "to support human-consumption as a fallback" is important in the context of the laboratory report. Indeed, this "human-consumption" aspect actually concerns the inclusion of limited xhtml content and as such an effortless implementation to visualize the content of the report by consuming systems is guarantueed. Also, for systems that might not initially choose to consume reports in a structured way, this guarantuees a way to at least visualize and present the content to the user.</p>
						<table class="grid">
							<tr>
								<td>Here, a </td>
								<td>
									<b>Report Details</b>
									<br/>Identifier: to do<br/> to do</td>
							</tr>
						</table>
						<table class="none">
							<tr>
								<td>to do</td>
								<td>to do</td>
								<td>to do</td>
								<td>to do</td>
								<td>to do</td>
								<td>to do</td>
							</tr>
						</table>
						<p>
							<b>Coded Diagnoses :</b>
						</p>
					</div>
				</text>
				<identifier>
					<system value="http://acme.com/lab/reports"/>
					<value value="11530231003.2015110413180000000"/>
				</identifier>
				<basedOn>
					<reference value="ServiceRequest/servicerequest1"/>
				</basedOn>
				<status value="final"/>
				<category>
					<coding>
						<system value="http://terminology.hl7.org/CodeSystem/v2-0074"/>
						<code value="LAB"/>
						<display value="laboratory"/>
					</coding>
					<!-- If needed, extra categories can be added to further categorize the report -->
				</category>
				<code>
					<!-- Here, one LOINC code is given that describes what this report is actually about. -->
					<coding>
						<system value="http://loinc.org"/>
						<code value="18723-7"/>
						<display value="Hematology studies (set)"/>
					</coding>
				</code>
				<subject>
					<reference value="Patient/patient1"/>
				</subject>
				<effectiveDateTime value="2015-11-04T13:18:00+01:00"/>
				<performer>
					<reference value="Organization/organization1"/>
				</performer>
				<resultsInterpreter>
					<reference value="Organization/organization1"/>
				</resultsInterpreter>
				<specimen>
					<!--OPTIONAL include 0..* specimen (in certain cases, referring to specimen explicetely is considerd redundant)-->
					<reference value="Specimen/specimen1"/>
				</specimen>
				<result>
					<!--Here follow the 1..* result that make up this report-->
					<reference value="Observation/observation10"/>
				</result>
					<result>
					<reference value="Observation/observation11"/>
				</result>
			</DiagnosticReport>
		</resource>
	</entry>
	<entry>
		<fullUrl value="https://example.com/base/Specimen/1"/>
		<resource>
			<Specimen xmlns="http://hl7.org/fhir">
				<!--the other resources use the id to refer to this specimen -->
				<id value="specimen1"/>
				<text>
					<status value="generated"/>
					<div xmlns="http://www.w3.org/1999/xhtml">
						<p>
							<b>Generated Narrative</b>
						</p>
						<p>
							<b>id</b>: specimen1</p>
						<p>
							<b>identifier</b>: 1</p>
						<p>
							<b>type</b>: <span title="Codes: {http://snomed.info/sct 119297000}">Blood specimen</span>
						</p>
						<p>
							<b>receivedTime</b>: 2015-11-04</p>
						<h3>Collections</h3>
						<table class="grid">
							<tr>
								<td>-</td>
								<td>
									<b>Collected[x]</b>
								</td>
							</tr>
							<tr>
								<td>*</td>
								<td>2015-11-03</td>
							</tr>
						</table>
					</div>
				</text>
				<identifier>
					<!--unique business identifier of the specimen SHOULD BE included if available-->
					<system value="https://www.GTL-LABO.be/"/>
					<value value="1"/>
				</identifier>
				<!-- OPTIONAL status code of a Specimen available | unavailable | unsatisfactory | entered-in-error -->
				<status value="available"/>
				<type>
					<coding>
						<!-- The actual specimen, described using a coding system. Here, the coding system SNOMED-CT is used for this -->
						<system value="http://snomed.info/sct"/>
						<code value="119297000"/>
						<display value="Blood specimen"/>
					</coding>
				</type>
				<!-- The date/time when the specimen was received SHOULD be included if available -->
				<receivedTime value="2015-11-04"/>
				<collection>
					<!-- The date/time when the specimen was collected SHOULD be included if available -->
					<collectedDateTime value="2015-11-03"/>
					<method>
						<!--OPTIONAL provide the method of collection-->
						<coding>
							<system value="http://snomed.info/sct"/>
							<code value="28520004"/>
							<display value="Venipuncture for blood test (procedure)"/>
						</coding>
					</method>
					<bodySite>
						<!--OPTIONAL provide the bodySite. Here, a SNOMED-CT code is used. Alternatively, express this using the .text element of the CodeableConcept datatype.-->
						<coding>
							<system value="http://snomed.info/sct"/>
							<code value="368208006"/>
							<display value="Left upper arm structure (body structure)"/>
						</coding>
					</bodySite>
				</collection>
				<note>
					<!-- OPTIONAL, any note concerning the specimen. Using the Annotation datatype in FHIR, it is OPTIONAL here to also add an author and/or dateTime of this annotation -->
					<text value="Some extra relevant information concerning the specimen"/>
				</note>
			</Specimen>
		</resource>
	</entry>
	<entry>
		<fullUrl value="https://example.com/base/Observation/10"/>
		<resource>
			<Observation xmlns="http://hl7.org/fhir">
				<id value="observation10"/>
				<meta>
					<profile value="https://www.ehealth.fgov.be/standards/fhir/StructureDefinition/be-observation"/>
				</meta>
				<text>
					<status value="generated"/>
					<div xmlns="http://www.w3.org/1999/xhtml">
						<p>
							<b>Generated Narrative</b>
						</p>
						<p>
							<b>id</b>:observation10</p>
						<p>
							<b>meta</b>: </p>
						<p/>
						<p>
							<b>category</b>: <span title="Codes: {http://terminology.hl7.org/CodeSystem/observation-category laboratory}">laboratory studies</span>
						</p>
						<p>
							<b>code</b>: <span title="Codes: {http://loinc.org 30341-2}">Erythrocyte sedimentation rate</span>
						</p>
						<p>
							<b>subject</b>: <a href="Patient-patient1.html">Generated Summary: id: patient1; 79121137740 (OFFICIAL), Social Beneficiary Identifier = 79121137740 (OFFICIAL), Medical record number = 45XXP0PA-4 (USUAL); active; Josephine Nessa La Paradisio ; nessa.laparadisio@belgium.be, ph: +322476792979(MOBILE), ph: +3226718655(HOME), ph: +322476799(WORK); gender: female; birthDate: 1979-12-11; <span title="Codes: {http://terminology.hl7.org/CodeSystem/v3-MaritalStatus D}, {https://www.ehealth.fgov.be/standards/fhir/CodeSystem/cd-civilstate 41}">Divorced</span>
							</a>
						</p>
						<p>
							<b>effective</b>: Nov 4, 2015, 2:16:00 PM</p>
						<p>
							<b>performer</b>: <a href="Practitioner-practitioner1.html">Generated Summary: id: practitioner1; 79121137740 (OFFICIAL), 18749704477 (OFFICIAL); Katherine Pulaski (OFFICIAL); katherine.pulaski@enterprisehospital.be(WORK), ph: 022675198(WORK), fax: 022675209(WORK); gender: female; birthDate: 1979-12-11</a>
						</p>
						<p>
							<b>value</b>: 2 mm/h</p>
						<p>
							<b>specimen</b>: <a href="Specimen-specimen1.html">Generated Summary: id: specimen1; 1; <span title="Codes: {http://snomed.info/sct 119297000}">Blood specimen</span>; receivedTime: 2015-11-04</a>
						</p>
						<h3>ReferenceRanges</h3>
						<table class="grid">
							<tr>
								<td>-</td>
								<td>
									<b>Low</b>
								</td>
								<td>
									<b>High</b>
								</td>
								<td>
									<b>Type</b>
								</td>
							</tr>
							<tr>
								<td>*</td>
								<td>0 mm/h</td>
								<td>30 mm/h</td>
								<td>
									<span title="Codes: {http://terminology.hl7.org/CodeSystem/referencerange-meaning normal}">Normal Range</span>
								</td>
							</tr>
						</table>
					</div>
				</text>
				<status value="final"/>
				<category>
					<coding>
						<system value="http://terminology.hl7.org/CodeSystem/observation-category"/>
						<code value="laboratory"/>
						<display value="laboratory"/>
					</coding>
					<text value="laboratory studies"/>
				</category>
				<code>
					<coding>
						<system value="http://loinc.org"/>
						<code value="30341-2"/>
						<display value="Erythrocyte sedimentation rate"/>
					</coding>
				</code>
				<subject>
					<reference value="Patient/patient1"/>
				</subject>
				<effectiveDateTime value="2015-11-04T09:16:00-05:00"/>
				<performer>
					<reference value="Practitioner/practitioner1"/>
				</performer>
				<valueQuantity>
					<value value="2"/>
					<unit value="mm/h"/>
					<system value="http://unitsofmeasure.org"/>
					<code value="mm/h"/>
				</valueQuantity>
				<specimen>
					<reference value="Specimen/specimen1"/>
				</specimen>
				<referenceRange>
					<low>
						<value value="0"/>
						<unit value="mm/h"/>
						<system value="http://unitsofmeasure.org"/>
						<code value="mm/h"/>
					</low>
					<high>
						<value value="30"/>
						<unit value="mm/h"/>
						<system value="http://unitsofmeasure.org"/>
						<code value="mm/h"/>
					</high>
					<type>
						<coding>
							<system value="http://terminology.hl7.org/CodeSystem/referencerange-meaning"/>
							<code value="normal"/>
						</coding>
					</type>
				</referenceRange>
			</Observation>
		</resource>
	</entry>
	<entry>
		<fullUrl value="https://example.com/base/Observation/11"/>
		<resource>
			<Observation xmlns="http://hl7.org/fhir">
				<id value="observation11"/>
				<meta>
					<profile value="https://www.ehealth.fgov.be/standards/fhir/StructureDefinition/be-observation"/>
				</meta>
				<text>
					<status value="generated"/>
					<div xmlns="http://www.w3.org/1999/xhtml">
						<p>
							<b>Generated Narrative</b>
						</p>
						<p>
							<b>id</b>: observation11</p>
						<p>
							<b>meta</b>: </p>
						<p/>
						<p>
							<b>category</b>: <span title="Codes: {http://terminology.hl7.org/CodeSystem/observation-category laboratory}">laboratory studies</span>
						</p>
						<p>
							<b>code</b>: SCREENING
						</p>
					</div>
				</text>
				<status value="final"/>
				<category>
					<coding>
						<system value="http://terminology.hl7.org/CodeSystem/observation-category"/>
						<code value="laboratory"/>
						<display value="laboratory"/>
					</coding>
					<text value="laboratory studies"/>
				</category>
				<code>
					<text value="SCREENING"/>
				</code>
				<subject>
					<reference value="Patient/patient1"/>
				</subject>
				<effectiveDateTime value="2015-11-04T09:16:00-05:00"/>
				<performer>
					<reference value="Practitioner/practitioner1"/>
				</performer>
				<hasMember>
					<reference value="Observation/observation111"/>
				</hasMember>
				<hasMember>
					<reference value="Observation/observation112"/>
				</hasMember>
			</Observation>
		</resource>
	</entry>

	<entry>
		<fullUrl value="https://example.com/base/Observation/111"/>
		<resource>
			<Observation xmlns="http://hl7.org/fhir">
				<id value="observation111"/>
				<meta>
					<profile value="https://www.ehealth.fgov.be/standards/fhir/StructureDefinition/be-observation"/>
				</meta>
				<text>
					<status value="generated"/>
					<div xmlns="http://www.w3.org/1999/xhtml">
						<p>
							<b>Generated Narrative</b>
						</p>
					</div>
				</text>
				<status value="final"/>
				<category>
					<coding>
						<system value="http://terminology.hl7.org/CodeSystem/observation-category"/>
						<code value="laboratory"/>
						<display value="laboratory"/>
					</coding>
					<text value="laboratory studies"/>
				</category>
				<code>
					<coding>
						<system value="http://loinc.org"/>
						<code value="789-8"/>
						<display value="Red blood cells (blood)"/>
					</coding>
				</code>
				<subject>
					<reference value="Patient/patient1"/>
				</subject>
				<effectiveDateTime value="2015-11-04T09:16:00-05:00"/>
				<performer>
					<reference value="Practitioner/practitioner1"/>
				</performer>
				<valueQuantity>
					<value value="4.35"/>
					<unit value="10*6/uL"/>
					<system value="http://unitsofmeasure.org"/>
					<code value="10*6/uL"/>
				</valueQuantity>
				<specimen>
					<reference value="Specimen/specimen1"/>
				</specimen>
				<referenceRange>
					<low>
						<value value="3.93"/>
						<unit value="10*6/uL"/>
						<system value="http://unitsofmeasure.org"/>
						<code value="10*6/uL"/>
					</low>
					<high>
						<value value="5.01"/>
						<unit value="10*6/uL"/>
						<system value="http://unitsofmeasure.org"/>
						<code value="10*6/uL"/>
					</high>
					<type>
						<coding>
							<system value="http://terminology.hl7.org/CodeSystem/referencerange-meaning"/>
							<code value="normal"/>
						</coding>
					</type>
				</referenceRange>
			</Observation>
		</resource>
	</entry>


	<entry>
		<fullUrl value="https://example.com/base/Observation/112"/>
		<resource>
			<Observation xmlns="http://hl7.org/fhir">
				<id value="observation112"/>
				<meta>
					<profile value="https://www.ehealth.fgov.be/standards/fhir/StructureDefinition/be-observation"/>
				</meta>
				<text>
					<status value="generated"/>
					<div xmlns="http://www.w3.org/1999/xhtml">
						<p>
							<b>Generated Narrative</b>
						</p>
					</div>
				</text>
				<status value="final"/>
				<category>
					<coding>
						<system value="http://terminology.hl7.org/CodeSystem/observation-category"/>
						<code value="laboratory"/>
						<display value="laboratory"/>
					</coding>
					<text value="laboratory studies"/>
				</category>
				<code>
					<coding>
						<system value="http://loinc.org"/>
						<code value="20563-3"/>
						<display value="Hemoglobin"/>
					</coding>
				</code>
				<subject>
					<reference value="Patient/patient1"/>
				</subject>
				<effectiveDateTime value="2015-11-04T09:16:00-05:00"/>
				<performer>
					<reference value="Practitioner/practitioner1"/>
				</performer>
				<valueQuantity>
					<value value="14.1"/>
					<unit value="g/dl"/>
					<system value="http://unitsofmeasure.org"/>
					<code value="g/dl"/>
				</valueQuantity>
				<specimen>
					<reference value="Specimen/specimen1"/>
				</specimen>
				<referenceRange>
					<low>
						<value value="11.8"/>
						<unit value="g/dl"/>
						<system value="http://unitsofmeasure.org"/>
						<code value="g/dl"/>
					</low>
					<high>
						<value value="14.8"/>
						<unit value="g/dl"/>
						<system value="http://unitsofmeasure.org"/>
						<code value="g/dl"/>
					</high>
					<type>
						<coding>
							<system value="http://terminology.hl7.org/CodeSystem/referencerange-meaning"/>
							<code value="normal"/>
						</coding>
					</type>
				</referenceRange>
			</Observation>
		</resource>
	</entry>




	
	
	
	
</Bundle>
