<?xml version="1.0" encoding="UTF-8"?>
<Bundle xmlns="http://hl7.org/fhir">
  <id value="ReportSentAsFHIRDocument"/>
<!-- As an example, the diagnosticReport is presented here in the form of a FHIR document. "FHIR resources can be used to build documents that represent a composition: a coherent set of information that is a statement of healthcare information, including clinical observations and services. A document is an immutable set of resources with a fixed presentation that is authored and/or attested by humans, organizations and devices." (http://hl7.org/fhir/R4/documents.html)  -->
  <identifier>
  <!--  A persistent identifier for the bundle that won't change as a bundle is copied from server to server.(https://www.hl7.org/fhir/bundle-definitions.html#Bundle.identifier ) -->
    <system value="urn:ietf:rfc:3986"/>
    <value value="urn:uuid:0c3151bd-1cbf-9d64-b04d-cd9187a4c8e0"/>
  </identifier>
  <type value="document"/>
  <timestamp value="2015-11-03T13:18:00+01:00"/>
<!-- timestamp SHALL be given in a bundle when it is document  -->
  <entry>
  <!-- A FHIR document always starts with the FHIR Composition resource  -->
    <fullUrl value="urn:uuid:7c16c9c0-c471-4020-ae18-48abcadd8d34"/>
    <resource>
      <Composition>
        <id value="7c16c9c0-c471-4020-ae18-48abcadd8d34"/>
        <text>
          <status value="generated"/><div xmlns="http://www.w3.org/1999/xhtml"><p><b>Generated Narrative</b></p><p><b>id</b>: 7c16c9c0-c471-4020-ae18-48abcadd8d34</p><p><b>identifier</b>: urn:uuid:0c3151bd-1cbf-4d64-b04d-cd9187a4c7e0</p><p><b>status</b>: final</p><p><b>type</b>: <span title="Codes: {http://loinc.org 11502-2}">Laboratory report</span></p><p><b>date</b>: Nov 3, 2015, 1:18:00 PM</p><p><b>author</b>: <a href="Practitioner/practitioner11">Practitioner/practitioner11</a></p><p><b>title</b>: Report</p><h3>Attesters</h3><table class="grid"><tr><td>-</td><td><b>Mode</b></td><td><b>Party</b></td></tr><tr><td>*</td><td>professional</td><td><a href="Practitioner/practitioner11">Practitioner/practitioner11</a></td></tr></table></div>
        </text>
      <!--  a unique value identifying this version of the document  -->
        <extension url="http://hl7.org/fhir/StructureDefinition/composition-clinicaldocument-versionNumber">
        <!-- The official HL7 document extension for the logical version of the composition  -->
          <valueString value="1"/>
        </extension>
        <identifier>
        <!--  A persistent identifier for the DOCUMENT. If a new DOCUMENT is sent that (re-)finalizes or amends this one, this identifier will REMAIN THE SAME (in this example, this is a UUID).  -->
          <system value="urn:ietf:rfc:3986"/>
          <value value="urn:uuid:0c3151bd-1cbf-4d64-b04d-cd9187a4c7e0"/>
        </identifier>
        <status value="final"/>
      <!-- MANDATORY preliminary|final|amended|entered-in-error: This is vital to the workflow when sending lab reports as FHIR documents.  -->
        <type>
          <coding>
            <system value="http://loinc.org"/>
            <code value="11502-2"/>
            <display value="Laboratory report"/>
          </coding>
        </type>
        <date value="2015-11-03T13:18:00+01:00"/>
        <author>
          <reference value="Practitioner/practitioner11"/>
        </author>
        <title value="Report"/>
        <attester>
          <mode value="professional"/>
          <party>
            <reference value="Practitioner/practitioner11"/>
          </party>
        </attester>
        <section>
               <text>
          <status value="generated"/><div xmlns="http://www.w3.org/1999/xhtml"><p><b>Generated Narrative</b></p><p><b>id</b>: observation20</p><p><b>meta</b>: </p><p></p><p><b>code</b>: <span title="Codes: {http://loinc.org 600-7}">Bacteria identified in Blood by Culture</span></p><p><b>subject</b>: <a href="Patient-patient1.html">Generated Summary: id: patient1; 79121137740 (OFFICIAL); active; Josephine Nessa La Paradisio ; nessa.laparadisio@belgium.be, ph: +322476792979(MOBILE), ph: +3226718655(HOME), ph: +322476799(WORK); gender: female; birthDate: 1979-12-11</a></p><p><b>effective</b>: Nov 4, 2015, 3:16:00 PM</p><p><b>issued</b>: Nov 4, 2015, 3:16:00 PM</p><p><b>performer</b>: <a href="Practitioner/practitioner11">Practitioner/practitioner11</a></p><p><b>value</b>: <span title="Codes: {http://snomed.info/sct 3092008}">Staphylococcus aureus</span></p><p><b>interpretation</b>: <span title="Codes: {http://terminology.hl7.org/CodeSystem/v3-ObservationInterpretation POS}">Positive</span></p><p><b>method</b>: <span title="Codes: {http://snomed.info/sct 104177005}">Blood culture for bacteria, including anaerobic screen</span></p></div>
        </text>
          <entry>
            <reference value="DiagnosticReport/diagnosticreport20"/>
          </entry>
        </section>
      </Composition>
    </resource>
  </entry>
  <entry>
    <fullUrl value="urn:uuid:7c16c9c0-c471-4098-ae18-48abcadd8d34"/>
    <resource>
      <DiagnosticReport>
        <id value="diagnosticreport20"/>
        <meta>
          <versionId value="1"/>
          <profile value="https://www.ehealth.fgov.be/standards/fhir/StructureDefinition/be-laboratory-report"/>
        </meta>
        <language value="be-nl"/>

        <identifier>
        <!--  Business identifier, Usually assigned by the Information System of the diagnostic service provider (filler id). -->
          <system value="http://acme.com/lab/reports"/>
          <value value="11530231003.2015110413180000000"/>
        </identifier>
        <basedOn>
          <reference value="ServiceRequest/servicerequest1"/>
        </basedOn>
        <status value="final"/>
        <category>
          <coding>
            <system value="http://terminology.hl7.org/CodeSystem/v2-0074"/>
            <code value="LAB"/>
            <display value="Laboratory"/>
          </coding>
        </category>
    <code> 
          <coding> 
            <system value="http://snomed.info/sct"/> 
            <code value="104177005"/> 
            <display value="Blood culture for bacteria, including anaerobic screen"/> 
          </coding> 
        </code> 
        <subject>
          <reference value="Patient/patient1"/>
        </subject>
        <effectiveDateTime value="2015-11-03T13:18:00+01:00"/>
        <issued value="2015-11-04T13:18:00+01:00"/>
        <performer>
          <reference value="Organization/organization10"/>
        </performer>
        <resultsInterpreter>
          <reference value="Practitioner/practitioner11"/>
        </resultsInterpreter>
        <result>
        <!--  Here follow the 1..* result that make up this report  -->
        <!--  In this case, this Observation20 is the only observation   -->
          <reference value="Observation/observation20"/>
        </result>
        <conclusion value="This is our conclusion"/>
      </DiagnosticReport>
    </resource>
  </entry>
  <entry>
    <fullUrl value="urn:uuid:7c16c9c0-c471-4098-ae18-48abcadd8d36"/>
    <resource>
      <Observation>
        <id value="observation20"/>
        <meta>
          <profile value="https://www.ehealth.fgov.be/standards/fhir/StructureDefinition/be-observation-laboratory"/>
        </meta>
        <text>
          <status value="generated"/><div xmlns="http://www.w3.org/1999/xhtml"><p><b>Generated Narrative</b></p><p><b>id</b>: observation20</p><p><b>meta</b>: </p><p></p><p><b>code</b>: <span title="Codes: {http://loinc.org 600-7}">Bacteria identified in Blood by Culture</span></p><p><b>subject</b>: <a href="Patient-patient1.html">Generated Summary: id: patient1; 79121137740 (OFFICIAL); active; Josephine Nessa La Paradisio ; nessa.laparadisio@belgium.be, ph: +322476792979(MOBILE), ph: +3226718655(HOME), ph: +322476799(WORK); gender: female; birthDate: 1979-12-11</a></p><p><b>effective</b>: Nov 4, 2015, 3:16:00 PM</p><p><b>issued</b>: Nov 4, 2015, 3:16:00 PM</p><p><b>performer</b>: <a href="Practitioner/practitioner11">Practitioner/practitioner11</a></p><p><b>value</b>: <span title="Codes: {http://snomed.info/sct 3092008}">Staphylococcus aureus</span></p><p><b>interpretation</b>: <span title="Codes: {http://terminology.hl7.org/CodeSystem/v3-ObservationInterpretation POS}">Positive</span></p><p><b>method</b>: <span title="Codes: {http://snomed.info/sct 104177005}">Blood culture for bacteria, including anaerobic screen</span></p></div>
        </text>
        <status value="final"/>
        <code>
          <coding>
            <system value="http://loinc.org"/>
            <code value="600-7"/>
            <display value="Bacteria identified in Blood by Culture"/>
          </coding>
        </code>
        <subject>
          <reference value="Patient/patient1"/>
        </subject>
        <effectiveDateTime value="2015-11-04T09:16:00-05:00"/>
        <issued value="2015-11-04T09:16:00-05:00"/>
        <performer>
          <reference value="Practitioner/practitioner11"/>
        </performer>
        <valueCodeableConcept>
          <coding>
            <system value="http://snomed.info/sct"/>
            <code value="3092008"/>
            <display value="Staphylococcus aureus"/>
          </coding>
        </valueCodeableConcept>
        <interpretation>
          <coding>
            <system value="http://terminology.hl7.org/CodeSystem/v3-ObservationInterpretation"/>
            <code value="POS"/>
          </coding>
        </interpretation>
        <method>
          <coding>
            <system value="http://snomed.info/sct"/>
            <code value="104177005"/>
            <display value="Blood culture for bacteria, including anaerobic screen"/>
          </coding>
        </method>
      </Observation>
    </resource>
  </entry>
  <entry>
    <fullUrl value="urn:uuid:7c16c9c0-c471-4098-ae18-48abcadd8d40"/>
    <resource>
      <Organization>
        <id value="organization10"/>
        <meta>
          <profile value="https://www.ehealth.fgov.be/standards/fhir/StructureDefinition/be-organization"/>
        </meta>
        <text>
          <status value="generated"/><div xmlns="http://www.w3.org/1999/xhtml"><p><b>Generated Narrative</b></p><p><b>id</b>: organization10</p><p><b>meta</b>: </p><p><b>identifier</b>: Medical License number = 81165343998 (OFFICIAL)</p><p><b>active</b>: true</p><p><b>type</b>: <span title="Codes: {https://www.ehealth.fgov.be/standards/fhir/CodeSystem/cd-hcparty orglaboratory}">orglaboratory</span></p><p><b>name</b>: GTL - General Testing Laboratory</p><p><b>telecom</b>: ph: 322675199(WORK)</p><p><b>address</b>: Vulcansstraat 120, 1000 Brussel(WORK)</p></div>
        </text>
        <identifier>
          <use value="official"/>
          <type>
            <coding>
              <system value="http://terminology.hl7.org/CodeSystem/v2-0203"/>
              <code value="MD"/>
              <display value="Medical License number"/>
            </coding>
          </type>
          <system value="https://www.ehealth.fgov.be/standards/fhir/NamingSystem/nihdi"/>
          <value value="81165343998"/>
        </identifier>
        <active value="true"/>
        <type>
          <coding>
            <system value="https://www.ehealth.fgov.be/standards/fhir/CodeSystem/cd-hcparty"/>
            <code value="orglaboratory"/>
          </coding>
        </type>
        <name value="GTL - General Testing Laboratory"/>
        <telecom>
          <system value="phone"/>
          <value value="322675199"/>
          <use value="work"/>
        </telecom>
        <address>
          <extension url="http://hl7.org/fhir/StructureDefinition/language">
            <valueCode value="nl"/>
          </extension>
          <use value="work"/>
          <type value="both"/>
          <text value="Vulcansstraat 120, 1000 Brussel"/>
          <line value="Vulcansstraat 120">
            <extension url="http://hl7.org/fhir/StructureDefinition/iso21090-ADXP-streetName">
              <valueString value="Vulcansstraat"/>
            </extension>
            <extension url="http://hl7.org/fhir/StructureDefinition/iso21090-ADXP-houseNumber">
              <valueString value="120"/>
            </extension>
          </line>
          <city value="Brussel"/>
          <postalCode value="1000"/>
          <country value="BE"/>
        </address>
      </Organization>
    </resource>
  </entry>
  <entry>
    <fullUrl value="urn:uuid:7c16c9c0-c471-4098-ae18-48abcadd8d41"/>
    <resource>
      <Practitioner>
        <id value="practitioner11"/>
        <meta>
          <profile value="https://www.ehealth.fgov.be/standards/fhir/StructureDefinition/be-practitioner"/>
        </meta>
        <text>
          <status value="generated"/><div xmlns="http://www.w3.org/1999/xhtml"><p><b>Generated Narrative</b></p><p><b>id</b>: practitioner11</p><p><b>meta</b>: </p><p><b>identifier</b>: 554488997 (OFFICIAL)</p><p><b>name</b>: Nicolas Davoust (OFFICIAL)</p><p><b>telecom</b>: nicolas.davoust@gtl.be(WORK), ph: 022675198(WORK), fax: 022675209(WORK)</p></div>
        </text>
        <identifier>
          <use value="official"/>
          <system value="https://www.ehealth.fgov.be/standards/fhir/NamingSystem/nihdi"/>
          <value value="554488997"/>
        </identifier>
        <name>
          <use value="official"/>
          <family value="Davoust"/>
          <given value="Nicolas"/>
        </name>
        <telecom>
          <system value="email"/>
          <value value="nicolas.davoust@gtl.be"/>
          <use value="work"/>
        </telecom>
        <telecom>
          <system value="phone"/>
          <value value="022675198"/>
          <use value="work"/>
        </telecom>
        <telecom>
          <system value="fax"/>
          <value value="022675209"/>
          <use value="work"/>
        </telecom>
      </Practitioner>
    </resource>
  </entry>
  <entry>
    <fullUrl value="urn:uuid:7c16c9c0-c471-4098-ae18-48abcadd8d42"/>
    <resource>
      <Patient>
        <id value="patient1"/>
        <meta>
          <profile value="https://www.ehealth.fgov.be/standards/fhir/StructureDefinition/be-patient"/>
        </meta>
        <text>
          <status value="generated"/><div xmlns="http://www.w3.org/1999/xhtml"><p><b>Generated Narrative</b></p><p><b>id</b>: patient1</p><p><b>meta</b>: </p><p><b>identifier</b>: 79121137740 (OFFICIAL)</p><p><b>active</b>: true</p><p><b>name</b>: Josephine Nessa La Paradisio </p><p><b>telecom</b>: nessa.laparadisio@belgium.be, ph: +322476792979(MOBILE), ph: +3226718655(HOME), ph: +322476799(WORK)</p><p><b>gender</b>: female</p><p><b>birthDate</b>: 1979-12-11</p><p><b>address</b>: Sloordelle 42, 1160 Oudergem(HOME)</p></div>
        </text>
        <identifier>
          <use value="official"/>
          <system value="https://www.ehealth.fgov.be/standards/fhir/NamingSystem/ssin"/>
          <value value="79121137740"/>
        </identifier>
        <active value="true"/>
        <name>
          <family value="La Paradisio"/>
          <given value="Josephine"/>
          <given value="Nessa"/>
        </name>
        <telecom>
          <system value="email"/>
          <value value="nessa.laparadisio@belgium.be"/>
        </telecom>
        <telecom>
          <system value="phone"/>
          <value value="+322476792979"/>
          <use value="mobile"/>
        </telecom>
        <telecom>
          <system value="phone"/>
          <value value="+3226718655"/>
          <use value="home"/>
        </telecom>
        <telecom>
          <system value="phone"/>
          <value value="+322476799"/>
          <use value="work"/>
        </telecom>
        <gender value="female"/>
        <birthDate value="1979-12-11">
          <extension url="http://hl7.org/fhir/StructureDefinition/patient-birthTime">
            <valueDateTime value="1979-12-11T13:28:17-05:00"/>
          </extension>
        </birthDate>
        <address>
          <use value="home"/>
          <type value="both"/>
          <text value="Sloordelle 42, 1160 Oudergem"/>
          <line value="Sloordelle 42"/>
          <city value="Oudergem"/>
          <postalCode value="1160"/>
          <country value="BE"/>
        </address>
      </Patient>
    </resource>
  </entry>
  <entry>
    <fullUrl value="urn:uuid:7c16c9c0-c471-4098-ae18-48abcadd8d43"/>
    <resource>
      <ServiceRequest>
        <id value="servicerequest1"/>
        <text>
          <status value="generated"/><div xmlns="http://www.w3.org/1999/xhtml"><p><b>Generated Narrative</b></p><p><b>id</b>: servicerequest1</p><p><b>identifier</b>: 12334546</p><p><b>status</b>: active</p><p><b>intent</b>: order</p><p><b>category</b>: <span title="Codes: {http://snomed.info/sct 108252007}">Laboratory procedure</span></p><p><b>subject</b>: <a href="Patient-patient1.html">Generated Summary: id: patient1; 79121137740 (OFFICIAL); active; Josephine Nessa La Paradisio ; nessa.laparadisio@belgium.be, ph: +322476792979(MOBILE), ph: +3226718655(HOME), ph: +322476799(WORK); gender: female; birthDate: 1979-12-11</a></p><p><b>authoredOn</b>: Nov 1, 2015, 2:41:00 PM</p><p><b>requester</b>: <a href="Practitioner-practitioner1.html">Generated Summary: id: practitioner1; 18749704477 (OFFICIAL); Katherine Pulaski (OFFICIAL); katherine.pulaski@enterprisehospital.be(WORK), ph: 022675198(WORK), fax: 022675209(WORK)</a></p></div>
        </text>
        <identifier>
        <!-- The original order number  -->
          <system value="https://www.GTL-LABO.be/orderingsystem"/>
          <value value="12334546"/>
        </identifier>
        <status value="active"/>
        <intent value="order"/>
        <category>
          <coding>
            <system value="http://snomed.info/sct"/>
            <code value="108252007"/>
            <display value="Laboratory procedure"/>
          </coding>
        </category>
        <subject>
          <reference value="Patient/patient1"/>
        </subject>
        <authoredOn value="2015-11-01T14:41:00+01:00"/>
        <requester>
        <!-- in case of sub orders, the requester might also be a laboratory  -->
          <reference value="Practitioner/practitioner1"/>
        </requester>
      </ServiceRequest>
    </resource>
  </entry>
  <entry>
    <fullUrl value="urn:uuid:7c16c9c0-c471-4098-ae18-48abcadd8d44"/>
    <resource>
      <Practitioner>
        <id value="practitioner1"/>
        <meta>
          <profile value="https://www.ehealth.fgov.be/standards/fhir/StructureDefinition/be-practitioner"/>
        </meta>
        <text>
          <status value="generated"/><div xmlns="http://www.w3.org/1999/xhtml"><p><b>Generated Narrative</b></p><p><b>id</b>: practitioner1</p><p><b>meta</b>: </p><p><b>identifier</b>: 18749704477 (OFFICIAL)</p><p><b>name</b>: Katherine Pulaski (OFFICIAL)</p><p><b>telecom</b>: katherine.pulaski@enterprisehospital.be(WORK), ph: 022675198(WORK), fax: 022675209(WORK)</p><p><b>address</b>: Jupiterlaan 5, 1853 Grimbergen(HOME)</p></div>
        </text>
        <identifier>
          <use value="official"/>
          <system value="https://www.ehealth.fgov.be/standards/fhir/NamingSystem/nihdi"/>
          <value value="18749704477"/>
        </identifier>
        <name>
          <use value="official"/>
          <family value="Pulaski"/>
          <given value="Katherine"/>
          <suffix value="MD"/>
        </name>
        <telecom>
          <system value="email"/>
          <value value="katherine.pulaski@enterprisehospital.be"/>
          <use value="work"/>
        </telecom>
        <telecom>
          <system value="phone"/>
          <value value="022675198"/>
          <use value="work"/>
        </telecom>
        <telecom>
          <system value="fax"/>
          <value value="022675209"/>
          <use value="work"/>
        </telecom>
        <address>
          <use value="home"/>
          <text value="Jupiterlaan 5, 1853 Grimbergen"/>
          <line value="Jupiterlaan 5"/>
          <city value="Grimbergen"/>
          <postalCode value="1853"/>
          <country value="BE"/>
        </address>
      </Practitioner>
    </resource>
  </entry>
</Bundle>